success,rt,trial_type,trial_index,plugin_version,time_elapsed,random_id,stimulus,response,task,word,condition,list,question_order,correct_answer,correct,file_name
TRUE,973901,fullscreen,0,2.1.0,974925,p05ywlxguyt,NA,NA,NA,NA,NA,NA,NA,NA,NA,/Users/martincz/GitHub/COGS119/group_wi26_false_recall/analysis/../data/raw_data/p05ywlxguyt_1772176624982.csv
NA,555,html-keyboard-response,1,2.0.0,975483,p05ywlxguyt,Welcome to the False Recall experiment. <p>Press any key to begin.</p>,NA,NA,NA,NA,NA,NA,NA,NA,/Users/martincz/GitHub/COGS119/group_wi26_false_recall/analysis/../data/raw_data/p05ywlxguyt_1772176624982.csv
NA,4618,survey-text,2,2.0.0,980105,p05ywlxguyt,NA,"{""participant_id"":""seal""}",NA,NA,NA,NA,NA,NA,NA,/Users/martincz/GitHub/COGS119/group_wi26_false_recall/analysis/../data/raw_data/p05ywlxguyt_1772176624982.csv
NA,4107,html-keyboard-response,3,2.0.0,984214,p05ywlxguyt,"<p>Listen to the following words. Do your best to memorize as many words as accurately as possible.<p>
      <p>The first trial will begin after this screen<p>
        <p> Press any key to continue<p> 
",NA,NA,NA,NA,NA,NA,NA,NA,/Users/martincz/GitHub/COGS119/group_wi26_false_recall/analysis/../data/raw_data/p05ywlxguyt_1772176624982.csv
NA,null,audio-keyboard-response,4,2.1.1,1013199,p05ywlxguyt,stimuli/Cogs 119 List 1.wav,null,NA,NA,NA,NA,NA,NA,NA,/Users/martincz/GitHub/COGS119/group_wi26_false_recall/analysis/../data/raw_data/p05ywlxguyt_1772176624982.csv
NA,13658,survey-text,5,2.0.0,1027866,p05ywlxguyt,NA,"{""Q0"":""chair"",""Q1"":"""",""Q2"":"""",""Q3"":"""",""Q4"":"""",""Q5"":"""",""Q6"":"""",""Q7"":"""",""Q8"":"""",""Q9"":"""",""Q10"":"""",""Q11"":"""",""Q12"":"""",""Q13"":"""",""Q14"":""""}",free_recall,NA,NA,NA,NA,NA,NA,/Users/martincz/GitHub/COGS119/group_wi26_false_recall/analysis/../data/raw_data/p05ywlxguyt_1772176624982.csv
NA,null,audio-keyboard-response,6,2.1.1,1055496,p05ywlxguyt,stimuli/Cogs 119 List 4.wav,null,NA,NA,NA,NA,NA,NA,NA,/Users/martincz/GitHub/COGS119/group_wi26_false_recall/analysis/../data/raw_data/p05ywlxguyt_1772176624982.csv
NA,62763,survey-text,7,2.0.0,1119267,p05ywlxguyt,NA,"{""Q0"":""smooth"",""Q1"":""sand"",""Q2"":""gravel"",""Q3"":""bumpy"",""Q4"":"""",""Q5"":"""",""Q6"":"""",""Q7"":"""",""Q8"":"""",""Q9"":"""",""Q10"":"""",""Q11"":"""",""Q12"":"""",""Q13"":"""",""Q14"":""""}",free_recall,NA,NA,NA,NA,NA,NA,/Users/martincz/GitHub/COGS119/group_wi26_false_recall/analysis/../data/raw_data/p05ywlxguyt_1772176624982.csv
NA,null,audio-keyboard-response,8,2.1.1,1145542,p05ywlxguyt,stimuli/Cogs 119 List 3.wav,null,NA,NA,NA,NA,NA,NA,NA,/Users/martincz/GitHub/COGS119/group_wi26_false_recall/analysis/../data/raw_data/p05ywlxguyt_1772176624982.csv
NA,17466,survey-text,9,2.0.0,1164016,p05ywlxguyt,NA,"{""Q0"":""knitting"",""Q1"":""cloth"",""Q2"":""nimble"",""Q3"":""texture"",""Q4"":""wool"",""Q5"":"""",""Q6"":"""",""Q7"":"""",""Q8"":"""",""Q9"":"""",""Q10"":"""",""Q11"":"""",""Q12"":"""",""Q13"":"""",""Q14"":""""}",free_recall,NA,NA,NA,NA,NA,NA,/Users/martincz/GitHub/COGS119/group_wi26_false_recall/analysis/../data/raw_data/p05ywlxguyt_1772176624982.csv
NA,null,audio-keyboard-response,10,2.1.1,1191029,p05ywlxguyt,stimuli/Cogs 119 List 2.wav,null,NA,NA,NA,NA,NA,NA,NA,/Users/martincz/GitHub/COGS119/group_wi26_false_recall/analysis/../data/raw_data/p05ywlxguyt_1772176624982.csv
NA,15402,survey-text,11,2.0.0,1207440,p05ywlxguyt,NA,"{""Q0"":""top"",""Q1"":""peak"",""Q2"":""mountain"",""Q3"":""speak"",""Q4"":""pain"",""Q5"":"""",""Q6"":"""",""Q7"":"""",""Q8"":"""",""Q9"":"""",""Q10"":"""",""Q11"":"""",""Q12"":"""",""Q13"":"""",""Q14"":""""}",free_recall,NA,NA,NA,NA,NA,NA,/Users/martincz/GitHub/COGS119/group_wi26_false_recall/analysis/../data/raw_data/p05ywlxguyt_1772176624982.csv
NA,null,audio-keyboard-response,12,2.1.1,1234323,p05ywlxguyt,stimuli/Cogs 119 List 5.wav,null,NA,NA,NA,NA,NA,NA,NA,/Users/martincz/GitHub/COGS119/group_wi26_false_recall/analysis/../data/raw_data/p05ywlxguyt_1772176624982.csv
NA,25300,survey-text,13,2.0.0,1260631,p05ywlxguyt,NA,"{""Q0"":""bed"",""Q1"":""nap"",""Q2"":""rest"",""Q3"":""dream"",""Q4"":""wake"",""Q5"":""blanket"",""Q6"":""drowsy"",""Q7"":""peace"",""Q8"":"""",""Q9"":"""",""Q10"":"""",""Q11"":"""",""Q12"":"""",""Q13"":"""",""Q14"":""""}",free_recall,NA,NA,NA,NA,NA,NA,/Users/martincz/GitHub/COGS119/group_wi26_false_recall/analysis/../data/raw_data/p05ywlxguyt_1772176624982.csv
NA,null,audio-keyboard-response,14,2.1.1,1286770,p05ywlxguyt,stimuli/Cogs 119 List 6.wav,null,NA,NA,NA,NA,NA,NA,NA,/Users/martincz/GitHub/COGS119/group_wi26_false_recall/analysis/../data/raw_data/p05ywlxguyt_1772176624982.csv
NA,11166,survey-text,15,2.0.0,1298944,p05ywlxguyt,NA,"{""Q0"":""sour"",""Q1"":""sweet"",""Q2"":""candy"",""Q3"":""tart"",""Q4"":""cake"",""Q5"":"""",""Q6"":"""",""Q7"":"""",""Q8"":"""",""Q9"":"""",""Q10"":"""",""Q11"":"""",""Q12"":"""",""Q13"":"""",""Q14"":""""}",free_recall,NA,NA,NA,NA,NA,NA,/Users/martincz/GitHub/COGS119/group_wi26_false_recall/analysis/../data/raw_data/p05ywlxguyt_1772176624982.csv
NA,9515,html-keyboard-response,16,2.0.0,1308460,p05ywlxguyt,"<p>You will now receive another test.<p> 
      <p>Here you will be shown a series of words that you may have seen previously.<p> 
      <p>Your task is to rate your confidence of seeing these words on a 4 point scale<p>
      <p>Definitely new<p> 
      <p>Maybe new<p>
      <p>Maybe seen before<p>
      <p>Definitely seen before<p>
      <p>Press any key to continue<p> 
",NA,NA,NA,NA,NA,NA,NA,NA,/Users/martincz/GitHub/COGS119/group_wi26_false_recall/analysis/../data/raw_data/p05ywlxguyt_1772176624982.csv
NA,3935,survey-likert,17,2.0.0,1312399,p05ywlxguyt,NA,"{""Q0"":2}",recognition,Couch,studied,1,[0],NA,NA,/Users/martincz/GitHub/COGS119/group_wi26_false_recall/analysis/../data/raw_data/p05ywlxguyt_1772176624982.csv
NA,2613,survey-likert,18,2.0.0,1315015,p05ywlxguyt,NA,"{""Q0"":2}",recognition,Shoe,unrelated,1,[0],NA,NA,/Users/martincz/GitHub/COGS119/group_wi26_false_recall/analysis/../data/raw_data/p05ywlxguyt_1772176624982.csv
NA,3313,survey-likert,19,2.0.0,1318330,p05ywlxguyt,NA,"{""Q0"":1}",recognition,Ball,unrelated,1,[0],NA,NA,/Users/martincz/GitHub/COGS119/group_wi26_false_recall/analysis/../data/raw_data/p05ywlxguyt_1772176624982.csv
NA,2433,survey-likert,20,2.0.0,1320764,p05ywlxguyt,NA,"{""Q0"":3}",recognition,Chair,critical,1,[0],NA,NA,/Users/martincz/GitHub/COGS119/group_wi26_false_recall/analysis/../data/raw_data/p05ywlxguyt_1772176624982.csv
NA,1614,survey-likert,21,2.0.0,1322381,p05ywlxguyt,NA,"{""Q0"":3}",recognition,Table,studied,1,[0],NA,NA,/Users/martincz/GitHub/COGS119/group_wi26_false_recall/analysis/../data/raw_data/p05ywlxguyt_1772176624982.csv
NA,1897,survey-likert,22,2.0.0,1324281,p05ywlxguyt,NA,"{""Q0"":2}",recognition,Floor,weakly related,1,[0],NA,NA,/Users/martincz/GitHub/COGS119/group_wi26_false_recall/analysis/../data/raw_data/p05ywlxguyt_1772176624982.csv
NA,2164,survey-likert,23,2.0.0,1326447,p05ywlxguyt,NA,"{""Q0"":3}",recognition,Cushion,weakly related,1,[0],NA,NA,/Users/martincz/GitHub/COGS119/group_wi26_false_recall/analysis/../data/raw_data/p05ywlxguyt_1772176624982.csv
NA,2465,survey-likert,24,2.0.0,1328915,p05ywlxguyt,NA,"{""Q0"":1}",recognition,Chalk,weakly related,4,[0],NA,NA,/Users/martincz/GitHub/COGS119/group_wi26_false_recall/analysis/../data/raw_data/p05ywlxguyt_1772176624982.csv
NA,1980,survey-likert,25,2.0.0,1330897,p05ywlxguyt,NA,"{""Q0"":3}",recognition,Smooth,studied,4,[0],NA,NA,/Users/martincz/GitHub/COGS119/group_wi26_false_recall/analysis/../data/raw_data/p05ywlxguyt_1772176624982.csv
NA,2115,survey-likert,26,2.0.0,1333014,p05ywlxguyt,NA,"{""Q0"":2}",recognition,Spike,weakly related,4,[0],NA,NA,/Users/martincz/GitHub/COGS119/group_wi26_false_recall/analysis/../data/raw_data/p05ywlxguyt_1772176624982.csv
NA,2747,survey-likert,27,2.0.0,1335764,p05ywlxguyt,NA,"{""Q0"":0}",recognition,Project,unrelated,4,[0],NA,NA,/Users/martincz/GitHub/COGS119/group_wi26_false_recall/analysis/../data/raw_data/p05ywlxguyt_1772176624982.csv
NA,2732,survey-likert,28,2.0.0,1338497,p05ywlxguyt,NA,"{""Q0"":3}",recognition,Rough,critical,4,[0],NA,NA,/Users/martincz/GitHub/COGS119/group_wi26_false_recall/analysis/../data/raw_data/p05ywlxguyt_1772176624982.csv
NA,2015,survey-likert,29,2.0.0,1340514,p05ywlxguyt,NA,"{""Q0"":1}",recognition,Key,unrelated,4,[0],NA,NA,/Users/martincz/GitHub/COGS119/group_wi26_false_recall/analysis/../data/raw_data/p05ywlxguyt_1772176624982.csv
NA,1614,survey-likert,30,2.0.0,1342131,p05ywlxguyt,NA,"{""Q0"":2}",recognition,Touch,studied,4,[0],NA,NA,/Users/martincz/GitHub/COGS119/group_wi26_false_recall/analysis/../data/raw_data/p05ywlxguyt_1772176624982.csv
NA,2348,survey-likert,31,2.0.0,1344481,p05ywlxguyt,NA,"{""Q0"":0}",recognition,Click: Definitely New,attention_check,none,[0],NA,NA,/Users/martincz/GitHub/COGS119/group_wi26_false_recall/analysis/../data/raw_data/p05ywlxguyt_1772176624982.csv
NA,82747,survey-likert,32,2.0.0,1427228,p05ywlxguyt,NA,"{""Q0"":3}",recognition,Thread,studied,3,[0],NA,NA,/Users/martincz/GitHub/COGS119/group_wi26_false_recall/analysis/../data/raw_data/p05ywlxguyt_1772176624982.csv
NA,2467,survey-likert,33,2.0.0,1429697,p05ywlxguyt,NA,"{""Q0"":2}",recognition,Needle,critical,3,[0],NA,NA,/Users/martincz/GitHub/COGS119/group_wi26_false_recall/analysis/../data/raw_data/p05ywlxguyt_1772176624982.csv
NA,2697,survey-likert,34,2.0.0,1432396,p05ywlxguyt,NA,"{""Q0"":0}",recognition,Stop,unrelated,3,[0],NA,NA,/Users/martincz/GitHub/COGS119/group_wi26_false_recall/analysis/../data/raw_data/p05ywlxguyt_1772176624982.csv
NA,1764,survey-likert,35,2.0.0,1434163,p05ywlxguyt,NA,"{""Q0"":2}",recognition,Stitch,weakly related,3,[0],NA,NA,/Users/martincz/GitHub/COGS119/group_wi26_false_recall/analysis/../data/raw_data/p05ywlxguyt_1772176624982.csv
NA,1699,survey-likert,36,2.0.0,1435864,p05ywlxguyt,NA,"{""Q0"":2}",recognition,Pin,studied,3,[0],NA,NA,/Users/martincz/GitHub/COGS119/group_wi26_false_recall/analysis/../data/raw_data/p05ywlxguyt_1772176624982.csv
NA,1780,survey-likert,37,2.0.0,1437647,p05ywlxguyt,NA,"{""Q0"":1}",recognition,Fast,unrelated,3,[0],NA,NA,/Users/martincz/GitHub/COGS119/group_wi26_false_recall/analysis/../data/raw_data/p05ywlxguyt_1772176624982.csv
NA,41948,survey-likert,38,2.0.0,1479596,p05ywlxguyt,NA,"{""Q0"":0}",recognition,Splinter,weakly related,3,[0],NA,NA,/Users/martincz/GitHub/COGS119/group_wi26_false_recall/analysis/../data/raw_data/p05ywlxguyt_1772176624982.csv
NA,1814,survey-likert,39,2.0.0,1481413,p05ywlxguyt,NA,"{""Q0"":3}",recognition,Peak,studied,2,[0],NA,NA,/Users/martincz/GitHub/COGS119/group_wi26_false_recall/analysis/../data/raw_data/p05ywlxguyt_1772176624982.csv
NA,1647,survey-likert,40,2.0.0,1483063,p05ywlxguyt,NA,"{""Q0"":1}",recognition,Draw,unrelated,2,[0],NA,NA,/Users/martincz/GitHub/COGS119/group_wi26_false_recall/analysis/../data/raw_data/p05ywlxguyt_1772176624982.csv
NA,1765,survey-likert,41,2.0.0,1484830,p05ywlxguyt,NA,"{""Q0"":3}",recognition,Mountain,critical,2,[0],NA,NA,/Users/martincz/GitHub/COGS119/group_wi26_false_recall/analysis/../data/raw_data/p05ywlxguyt_1772176624982.csv
NA,1647,survey-likert,42,2.0.0,1486479,p05ywlxguyt,NA,"{""Q0"":2}",recognition,Hill,studied,2,[0],NA,NA,/Users/martincz/GitHub/COGS119/group_wi26_false_recall/analysis/../data/raw_data/p05ywlxguyt_1772176624982.csv
NA,1814,survey-likert,43,2.0.0,1488295,p05ywlxguyt,NA,"{""Q0"":1}",recognition,Snow,weakly related,2,[0],NA,NA,/Users/martincz/GitHub/COGS119/group_wi26_false_recall/analysis/../data/raw_data/p05ywlxguyt_1772176624982.csv
NA,3033,survey-likert,44,2.0.0,1491329,p05ywlxguyt,NA,"{""Q0"":2}",recognition,Hike,weakly related,2,[0],NA,NA,/Users/martincz/GitHub/COGS119/group_wi26_false_recall/analysis/../data/raw_data/p05ywlxguyt_1772176624982.csv
NA,1449,survey-likert,45,2.0.0,1492780,p05ywlxguyt,NA,"{""Q0"":1}",recognition,Car,unrelated,2,[0],NA,NA,/Users/martincz/GitHub/COGS119/group_wi26_false_recall/analysis/../data/raw_data/p05ywlxguyt_1772176624982.csv
NA,1680,survey-likert,46,2.0.0,1494462,p05ywlxguyt,NA,"{""Q0"":3}",recognition,Sleep,critical,5,[0],NA,NA,/Users/martincz/GitHub/COGS119/group_wi26_false_recall/analysis/../data/raw_data/p05ywlxguyt_1772176624982.csv
NA,2781,survey-likert,47,2.0.0,1497246,p05ywlxguyt,NA,"{""Q0"":0}",recognition,Fish,unrelated,5,[0],NA,NA,/Users/martincz/GitHub/COGS119/group_wi26_false_recall/analysis/../data/raw_data/p05ywlxguyt_1772176624982.csv
NA,1765,survey-likert,48,2.0.0,1499013,p05ywlxguyt,NA,"{""Q0"":3}",recognition,Calm,weakly related,5,[0],NA,NA,/Users/martincz/GitHub/COGS119/group_wi26_false_recall/analysis/../data/raw_data/p05ywlxguyt_1772176624982.csv
NA,1598,survey-likert,49,2.0.0,1500613,p05ywlxguyt,NA,"{""Q0"":2}",recognition,Coma,weakly related,5,[0],NA,NA,/Users/martincz/GitHub/COGS119/group_wi26_false_recall/analysis/../data/raw_data/p05ywlxguyt_1772176624982.csv
NA,1581,survey-likert,50,2.0.0,1502196,p05ywlxguyt,NA,"{""Q0"":3}",recognition,Bed,studied,5,[0],NA,NA,/Users/martincz/GitHub/COGS119/group_wi26_false_recall/analysis/../data/raw_data/p05ywlxguyt_1772176624982.csv
NA,3631,survey-likert,51,2.0.0,1505830,p05ywlxguyt,NA,"{""Q0"":3}",recognition,Tired,studied,5,[0],NA,NA,/Users/martincz/GitHub/COGS119/group_wi26_false_recall/analysis/../data/raw_data/p05ywlxguyt_1772176624982.csv
NA,1731,survey-likert,52,2.0.0,1507564,p05ywlxguyt,NA,"{""Q0"":1}",recognition,Chess,unrelated,5,[0],NA,NA,/Users/martincz/GitHub/COGS119/group_wi26_false_recall/analysis/../data/raw_data/p05ywlxguyt_1772176624982.csv
NA,2097,survey-likert,53,2.0.0,1509663,p05ywlxguyt,NA,"{""Q0"":1}",recognition,Cherry,weakly related,6,[0],NA,NA,/Users/martincz/GitHub/COGS119/group_wi26_false_recall/analysis/../data/raw_data/p05ywlxguyt_1772176624982.csv
NA,1964,survey-likert,54,2.0.0,1511630,p05ywlxguyt,NA,"{""Q0"":3}",recognition,Sour,studied,6,[0],NA,NA,/Users/martincz/GitHub/COGS119/group_wi26_false_recall/analysis/../data/raw_data/p05ywlxguyt_1772176624982.csv
NA,1564,survey-likert,55,2.0.0,1513196,p05ywlxguyt,NA,"{""Q0"":3}",recognition,Sweet,critical,6,[0],NA,NA,/Users/martincz/GitHub/COGS119/group_wi26_false_recall/analysis/../data/raw_data/p05ywlxguyt_1772176624982.csv
NA,2148,survey-likert,56,2.0.0,1515345,p05ywlxguyt,NA,"{""Q0"":2}",recognition,Door,unrelated,6,[0],NA,NA,/Users/martincz/GitHub/COGS119/group_wi26_false_recall/analysis/../data/raw_data/p05ywlxguyt_1772176624982.csv
NA,2498,survey-likert,57,2.0.0,1517844,p05ywlxguyt,NA,"{""Q0"":2}",recognition,Salty,weakly related,6,[0],NA,NA,/Users/martincz/GitHub/COGS119/group_wi26_false_recall/analysis/../data/raw_data/p05ywlxguyt_1772176624982.csv
NA,2134,survey-likert,58,2.0.0,1519980,p05ywlxguyt,NA,"{""Q0"":1}",recognition,Ghost,unrelated,6,[0],NA,NA,/Users/martincz/GitHub/COGS119/group_wi26_false_recall/analysis/../data/raw_data/p05ywlxguyt_1772176624982.csv
NA,1930,survey-likert,59,2.0.0,1521912,p05ywlxguyt,NA,"{""Q0"":2}",recognition,Sugar,studied,6,[0],NA,NA,/Users/martincz/GitHub/COGS119/group_wi26_false_recall/analysis/../data/raw_data/p05ywlxguyt_1772176624982.csv
NA,10049,survey-likert,60,2.0.0,1531963,p05ywlxguyt,NA,"{""Q0"":0,""Q1"":0,""Q2"":0,""Q3"":0,""Q4"":0,""Q5"":0}",NA,NA,NA,NA,"[0,1,2,3,4,5]",NA,NA,/Users/martincz/GitHub/COGS119/group_wi26_false_recall/analysis/../data/raw_data/p05ywlxguyt_1772176624982.csv
NA,6174,html-keyboard-response,61,2.0.0,1538139,p05ywlxguyt,"
    <h2>Speed Memory Game</h2>
    <p>Press <strong>S</strong> if the word was studied.</p>
    <p>Press <strong>N</strong> if it was NOT studied.</p>
    <p>Respond as quickly as possible. (Please note it may be case sensitive)</p>
    <p>Press any key to begin.</p>
",NA,NA,NA,NA,NA,NA,NA,NA,/Users/martincz/GitHub/COGS119/group_wi26_false_recall/analysis/../data/raw_data/p05ywlxguyt_1772176624982.csv
NA,1039,html-keyboard-response,62,2.0.0,1539179,p05ywlxguyt,<h1>Table</h1>,s,speed_game,Table,NA,NA,NA,s,TRUE,/Users/martincz/GitHub/COGS119/group_wi26_false_recall/analysis/../data/raw_data/p05ywlxguyt_1772176624982.csv
NA,null,html-keyboard-response,63,2.0.0,1539981,p05ywlxguyt,<h2 style='color:green;'>Correct! </h2>,null,NA,NA,NA,NA,NA,NA,NA,/Users/martincz/GitHub/COGS119/group_wi26_false_recall/analysis/../data/raw_data/p05ywlxguyt_1772176624982.csv
NA,650,html-keyboard-response,64,2.0.0,1540633,p05ywlxguyt,<h1>Needle</h1>,s,speed_game,Needle,NA,NA,NA,n,FALSE,/Users/martincz/GitHub/COGS119/group_wi26_false_recall/analysis/../data/raw_data/p05ywlxguyt_1772176624982.csv
NA,null,html-keyboard-response,65,2.0.0,1541436,p05ywlxguyt,<h2 style='color:red;'>Wrong </h2>,null,NA,NA,NA,NA,NA,NA,NA,/Users/martincz/GitHub/COGS119/group_wi26_false_recall/analysis/../data/raw_data/p05ywlxguyt_1772176624982.csv
NA,1636,html-keyboard-response,66,2.0.0,1543074,p05ywlxguyt,<h1>Sweet</h1>,s,speed_game,Sweet,NA,NA,NA,n,FALSE,/Users/martincz/GitHub/COGS119/group_wi26_false_recall/analysis/../data/raw_data/p05ywlxguyt_1772176624982.csv
NA,null,html-keyboard-response,67,2.0.0,1543877,p05ywlxguyt,<h2 style='color:red;'>Wrong </h2>,null,NA,NA,NA,NA,NA,NA,NA,/Users/martincz/GitHub/COGS119/group_wi26_false_recall/analysis/../data/raw_data/p05ywlxguyt_1772176624982.csv
NA,633,html-keyboard-response,68,2.0.0,1544512,p05ywlxguyt,<h1>Mountain</h1>,s,speed_game,Mountain,NA,NA,NA,n,FALSE,/Users/martincz/GitHub/COGS119/group_wi26_false_recall/analysis/../data/raw_data/p05ywlxguyt_1772176624982.csv
NA,null,html-keyboard-response,69,2.0.0,1545315,p05ywlxguyt,<h2 style='color:red;'>Wrong </h2>,null,NA,NA,NA,NA,NA,NA,NA,/Users/martincz/GitHub/COGS119/group_wi26_false_recall/analysis/../data/raw_data/p05ywlxguyt_1772176624982.csv
NA,1448,html-keyboard-response,70,2.0.0,1546764,p05ywlxguyt,<h1>Pin</h1>,n,speed_game,Pin,NA,NA,NA,s,FALSE,/Users/martincz/GitHub/COGS119/group_wi26_false_recall/analysis/../data/raw_data/p05ywlxguyt_1772176624982.csv
NA,null,html-keyboard-response,71,2.0.0,1547567,p05ywlxguyt,<h2 style='color:red;'>Wrong </h2>,null,NA,NA,NA,NA,NA,NA,NA,/Users/martincz/GitHub/COGS119/group_wi26_false_recall/analysis/../data/raw_data/p05ywlxguyt_1772176624982.csv
NA,607,html-keyboard-response,72,2.0.0,1548175,p05ywlxguyt,<h1>Chair</h1>,s,speed_game,Chair,NA,NA,NA,n,FALSE,/Users/martincz/GitHub/COGS119/group_wi26_false_recall/analysis/../data/raw_data/p05ywlxguyt_1772176624982.csv
NA,null,html-keyboard-response,73,2.0.0,1548978,p05ywlxguyt,<h2 style='color:red;'>Wrong </h2>,null,NA,NA,NA,NA,NA,NA,NA,/Users/martincz/GitHub/COGS119/group_wi26_false_recall/analysis/../data/raw_data/p05ywlxguyt_1772176624982.csv
NA,709,html-keyboard-response,74,2.0.0,1549689,p05ywlxguyt,<h1>Peak</h1>,s,speed_game,Peak,NA,NA,NA,s,TRUE,/Users/martincz/GitHub/COGS119/group_wi26_false_recall/analysis/../data/raw_data/p05ywlxguyt_1772176624982.csv
NA,null,html-keyboard-response,75,2.0.0,1550491,p05ywlxguyt,<h2 style='color:green;'>Correct! </h2>,null,NA,NA,NA,NA,NA,NA,NA,/Users/martincz/GitHub/COGS119/group_wi26_false_recall/analysis/../data/raw_data/p05ywlxguyt_1772176624982.csv
NA,770,html-keyboard-response,76,2.0.0,1551263,p05ywlxguyt,<h1>Touch</h1>,n,speed_game,Touch,NA,NA,NA,s,FALSE,/Users/martincz/GitHub/COGS119/group_wi26_false_recall/analysis/../data/raw_data/p05ywlxguyt_1772176624982.csv
NA,null,html-keyboard-response,77,2.0.0,1552066,p05ywlxguyt,<h2 style='color:red;'>Wrong </h2>,null,NA,NA,NA,NA,NA,NA,NA,/Users/martincz/GitHub/COGS119/group_wi26_false_recall/analysis/../data/raw_data/p05ywlxguyt_1772176624982.csv
NA,714,html-keyboard-response,78,2.0.0,1552782,p05ywlxguyt,<h1>Tired</h1>,s,speed_game,Tired,NA,NA,NA,s,TRUE,/Users/martincz/GitHub/COGS119/group_wi26_false_recall/analysis/../data/raw_data/p05ywlxguyt_1772176624982.csv
NA,null,html-keyboard-response,79,2.0.0,1553585,p05ywlxguyt,<h2 style='color:green;'>Correct! </h2>,null,NA,NA,NA,NA,NA,NA,NA,/Users/martincz/GitHub/COGS119/group_wi26_false_recall/analysis/../data/raw_data/p05ywlxguyt_1772176624982.csv
NA,626,html-keyboard-response,80,2.0.0,1554212,p05ywlxguyt,<h1>Bed</h1>,s,speed_game,Bed,NA,NA,NA,s,TRUE,/Users/martincz/GitHub/COGS119/group_wi26_false_recall/analysis/../data/raw_data/p05ywlxguyt_1772176624982.csv
NA,null,html-keyboard-response,81,2.0.0,1555015,p05ywlxguyt,<h2 style='color:green;'>Correct! </h2>,null,NA,NA,NA,NA,NA,NA,NA,/Users/martincz/GitHub/COGS119/group_wi26_false_recall/analysis/../data/raw_data/p05ywlxguyt_1772176624982.csv
NA,593,html-keyboard-response,82,2.0.0,1555609,p05ywlxguyt,<h1>Click N</h1>,n,speed_attention_check,NA,NA,NA,NA,NA,TRUE,/Users/martincz/GitHub/COGS119/group_wi26_false_recall/analysis/../data/raw_data/p05ywlxguyt_1772176624982.csv
NA,1653,html-keyboard-response,83,2.0.0,1557263,p05ywlxguyt,<h1>Couch</h1>,s,speed_game,Couch,NA,NA,NA,s,TRUE,/Users/martincz/GitHub/COGS119/group_wi26_false_recall/analysis/../data/raw_data/p05ywlxguyt_1772176624982.csv
NA,null,html-keyboard-response,84,2.0.0,1558066,p05ywlxguyt,<h2 style='color:green;'>Correct! </h2>,null,NA,NA,NA,NA,NA,NA,NA,/Users/martincz/GitHub/COGS119/group_wi26_false_recall/analysis/../data/raw_data/p05ywlxguyt_1772176624982.csv
NA,851,html-keyboard-response,85,2.0.0,1558919,p05ywlxguyt,<h1>Smooth</h1>,s,speed_game,Smooth,NA,NA,NA,s,TRUE,/Users/martincz/GitHub/COGS119/group_wi26_false_recall/analysis/../data/raw_data/p05ywlxguyt_1772176624982.csv
NA,null,html-keyboard-response,86,2.0.0,1559722,p05ywlxguyt,<h2 style='color:green;'>Correct! </h2>,null,NA,NA,NA,NA,NA,NA,NA,/Users/martincz/GitHub/COGS119/group_wi26_false_recall/analysis/../data/raw_data/p05ywlxguyt_1772176624982.csv
NA,687,html-keyboard-response,87,2.0.0,1560410,p05ywlxguyt,<h1>Sleep</h1>,s,speed_game,Sleep,NA,NA,NA,n,FALSE,/Users/martincz/GitHub/COGS119/group_wi26_false_recall/analysis/../data/raw_data/p05ywlxguyt_1772176624982.csv
NA,null,html-keyboard-response,88,2.0.0,1561214,p05ywlxguyt,<h2 style='color:red;'>Wrong </h2>,null,NA,NA,NA,NA,NA,NA,NA,/Users/martincz/GitHub/COGS119/group_wi26_false_recall/analysis/../data/raw_data/p05ywlxguyt_1772176624982.csv
NA,702,html-keyboard-response,89,2.0.0,1561917,p05ywlxguyt,<h1>Sugar</h1>,n,speed_game,Sugar,NA,NA,NA,s,FALSE,/Users/martincz/GitHub/COGS119/group_wi26_false_recall/analysis/../data/raw_data/p05ywlxguyt_1772176624982.csv
NA,null,html-keyboard-response,90,2.0.0,1562720,p05ywlxguyt,<h2 style='color:red;'>Wrong </h2>,null,NA,NA,NA,NA,NA,NA,NA,/Users/martincz/GitHub/COGS119/group_wi26_false_recall/analysis/../data/raw_data/p05ywlxguyt_1772176624982.csv
NA,543,html-keyboard-response,91,2.0.0,1563263,p05ywlxguyt,<h1>Thread</h1>,s,speed_game,Thread,NA,NA,NA,s,TRUE,/Users/martincz/GitHub/COGS119/group_wi26_false_recall/analysis/../data/raw_data/p05ywlxguyt_1772176624982.csv
NA,null,html-keyboard-response,92,2.0.0,1564066,p05ywlxguyt,<h2 style='color:green;'>Correct! </h2>,null,NA,NA,NA,NA,NA,NA,NA,/Users/martincz/GitHub/COGS119/group_wi26_false_recall/analysis/../data/raw_data/p05ywlxguyt_1772176624982.csv
NA,594,html-keyboard-response,93,2.0.0,1564662,p05ywlxguyt,<h1>Sour</h1>,s,speed_game,Sour,NA,NA,NA,s,TRUE,/Users/martincz/GitHub/COGS119/group_wi26_false_recall/analysis/../data/raw_data/p05ywlxguyt_1772176624982.csv
NA,null,html-keyboard-response,94,2.0.0,1565465,p05ywlxguyt,<h2 style='color:green;'>Correct! </h2>,null,NA,NA,NA,NA,NA,NA,NA,/Users/martincz/GitHub/COGS119/group_wi26_false_recall/analysis/../data/raw_data/p05ywlxguyt_1772176624982.csv
NA,830,html-keyboard-response,95,2.0.0,1566296,p05ywlxguyt,<h1>Rough</h1>,s,speed_game,Rough,NA,NA,NA,n,FALSE,/Users/martincz/GitHub/COGS119/group_wi26_false_recall/analysis/../data/raw_data/p05ywlxguyt_1772176624982.csv
NA,null,html-keyboard-response,96,2.0.0,1567099,p05ywlxguyt,<h2 style='color:red;'>Wrong </h2>,null,NA,NA,NA,NA,NA,NA,NA,/Users/martincz/GitHub/COGS119/group_wi26_false_recall/analysis/../data/raw_data/p05ywlxguyt_1772176624982.csv
NA,791,html-keyboard-response,97,2.0.0,1567892,p05ywlxguyt,<h1>Hill</h1>,n,speed_game,Hill,NA,NA,NA,s,FALSE,/Users/martincz/GitHub/COGS119/group_wi26_false_recall/analysis/../data/raw_data/p05ywlxguyt_1772176624982.csv
NA,null,html-keyboard-response,98,2.0.0,1568695,p05ywlxguyt,<h2 style='color:red;'>Wrong </h2>,null,NA,NA,NA,NA,NA,NA,NA,/Users/martincz/GitHub/COGS119/group_wi26_false_recall/analysis/../data/raw_data/p05ywlxguyt_1772176624982.csv
NA,2879,html-keyboard-response,99,2.0.0,1571577,p05ywlxguyt,"
      <h2>Game Results</h2>
      <p>Accuracy: 44%</p>
      <p>Average RT: 860 ms</p>
      <p>Press any key to continue.</p>
",NA,NA,NA,NA,NA,NA,NA,NA,/Users/martincz/GitHub/COGS119/group_wi26_false_recall/analysis/../data/raw_data/p05ywlxguyt_1772176624982.csv
NA,50169,survey-text,100,2.0.0,1621764,p05ywlxguyt,NA,"{""Q0"":""Memory"",""Q1"":""Confused on how bad my memory was"",""Q2"":""Moderately challenging"",""Q3"":""Nope"",""Q4"":""Nope""}",NA,NA,NA,NA,NA,NA,NA,/Users/martincz/GitHub/COGS119/group_wi26_false_recall/analysis/../data/raw_data/p05ywlxguyt_1772176624982.csv
TRUE,1969,fullscreen,0,2.1.0,2989,p0unvuqxmsj,NA,NA,NA,NA,NA,NA,NA,NA,NA,/Users/martincz/GitHub/COGS119/group_wi26_false_recall/analysis/../data/raw_data/p0unvuqxmsj_1772139796099.csv
NA,2323,html-keyboard-response,1,2.0.0,5313,p0unvuqxmsj,Welcome to the False Recall experiment. <p>Press any key to begin.</p>,NA,NA,NA,NA,NA,NA,NA,NA,/Users/martincz/GitHub/COGS119/group_wi26_false_recall/analysis/../data/raw_data/p0unvuqxmsj_1772139796099.csv
NA,21581,survey-text,2,2.0.0,26898,p0unvuqxmsj,NA,"{""participant_id"":""A18534325""}",NA,NA,NA,NA,NA,NA,NA,/Users/martincz/GitHub/COGS119/group_wi26_false_recall/analysis/../data/raw_data/p0unvuqxmsj_1772139796099.csv
NA,2780,html-keyboard-response,3,2.0.0,29679,p0unvuqxmsj,"<p>Listen to the following words. Do your best to memorize as many words as accurately as possible.<p>
      <p>The first trial will begin after this screen<p>
        <p> Press any key to continue<p> 
",AudioVolumeUp,NA,NA,NA,NA,NA,NA,NA,/Users/martincz/GitHub/COGS119/group_wi26_false_recall/analysis/../data/raw_data/p0unvuqxmsj_1772139796099.csv
NA,null,audio-keyboard-response,4,2.1.1,55386,p0unvuqxmsj,stimuli/Cogs 119 List 3.wav,null,NA,NA,NA,NA,NA,NA,NA,/Users/martincz/GitHub/COGS119/group_wi26_false_recall/analysis/../data/raw_data/p0unvuqxmsj_1772139796099.csv
NA,51461,survey-text,5,2.0.0,107859,p0unvuqxmsj,NA,"{""Q0"":""thorn"",""Q1"":""sewing"",""Q2"":""hurt"",""Q3"":""knitting"",""Q4"":""prick"",""Q5"":""thread"",""Q6"":""cloth"",""Q7"":""haystack"",""Q8"":"""",""Q9"":"""",""Q10"":"""",""Q11"":"""",""Q12"":"""",""Q13"":"""",""Q14"":""""}",free_recall,NA,NA,NA,NA,NA,NA,/Users/martincz/GitHub/COGS119/group_wi26_false_recall/analysis/../data/raw_data/p0unvuqxmsj_1772139796099.csv
NA,null,audio-keyboard-response,6,2.1.1,133637,p0unvuqxmsj,stimuli/Cogs 119 List 2.wav,null,NA,NA,NA,NA,NA,NA,NA,/Users/martincz/GitHub/COGS119/group_wi26_false_recall/analysis/../data/raw_data/p0unvuqxmsj_1772139796099.csv
NA,63698,survey-text,7,2.0.0,198350,p0unvuqxmsj,NA,"{""Q0"":""mountain"",""Q1"":""glacier"",""Q2"":""steep"",""Q3"":""plane"",""Q4"":""hill"",""Q5"":""hike"",""Q6"":""summit"",""Q7"":""ski"",""Q8"":"""",""Q9"":"""",""Q10"":"""",""Q11"":"""",""Q12"":"""",""Q13"":"""",""Q14"":""""}",free_recall,NA,NA,NA,NA,NA,NA,/Users/martincz/GitHub/COGS119/group_wi26_false_recall/analysis/../data/raw_data/p0unvuqxmsj_1772139796099.csv
NA,null,audio-keyboard-response,8,2.1.1,224122,p0unvuqxmsj,stimuli/Cogs 119 List 6.wav,null,NA,NA,NA,NA,NA,NA,NA,/Users/martincz/GitHub/COGS119/group_wi26_false_recall/analysis/../data/raw_data/p0unvuqxmsj_1772139796099.csv
NA,47380,survey-text,9,2.0.0,272524,p0unvuqxmsj,NA,"{""Q0"":""tart"",""Q1"":""cake"",""Q2"":""pie"",""Q3"":""sugar"",""Q4"":""chocolate"",""Q5"":""tooth"",""Q6"":""candy"",""Q7"":""bitter"",""Q8"":""sweet"",""Q9"":""heart"",""Q10"":""sour"",""Q11"":""good"",""Q12"":"""",""Q13"":"""",""Q14"":""""}",free_recall,NA,NA,NA,NA,NA,NA,/Users/martincz/GitHub/COGS119/group_wi26_false_recall/analysis/../data/raw_data/p0unvuqxmsj_1772139796099.csv
NA,null,audio-keyboard-response,10,2.1.1,298139,p0unvuqxmsj,stimuli/Cogs 119 List 1.wav,null,NA,NA,NA,NA,NA,NA,NA,/Users/martincz/GitHub/COGS119/group_wi26_false_recall/analysis/../data/raw_data/p0unvuqxmsj_1772139796099.csv
NA,49422,survey-text,11,2.0.0,348571,p0unvuqxmsj,NA,"{""Q0"":""bench"",""Q1"":""rocking"",""Q2"":""recliner"",""Q3"":""stool"",""Q4"":""sofa"",""Q5"":""table"",""Q6"":""desk"",""Q7"":""couch"",""Q8"":""sitting"",""Q9"":""legs"",""Q10"":""chair"",""Q11"":""swivel"",""Q12"":"""",""Q13"":"""",""Q14"":""""}",free_recall,NA,NA,NA,NA,NA,NA,/Users/martincz/GitHub/COGS119/group_wi26_false_recall/analysis/../data/raw_data/p0unvuqxmsj_1772139796099.csv
NA,null,audio-keyboard-response,12,2.1.1,374297,p0unvuqxmsj,stimuli/Cogs 119 List 5.wav,null,NA,NA,NA,NA,NA,NA,NA,/Users/martincz/GitHub/COGS119/group_wi26_false_recall/analysis/../data/raw_data/p0unvuqxmsj_1772139796099.csv
NA,69865,survey-text,13,2.0.0,445172,p0unvuqxmsj,NA,"{""Q0"":""yawn"",""Q1"":""drowsy"",""Q2"":""snooze"",""Q3"":""nap"",""Q4"":""bed"",""Q5"":""slumber"",""Q6"":""sleep"",""Q7"":""wake"",""Q8"":""wake"",""Q9"":""doze"",""Q10"":""night"",""Q11"":""alarm"",""Q12"":"""",""Q13"":"""",""Q14"":""""}",free_recall,NA,NA,NA,NA,NA,NA,/Users/martincz/GitHub/COGS119/group_wi26_false_recall/analysis/../data/raw_data/p0unvuqxmsj_1772139796099.csv
NA,null,audio-keyboard-response,14,2.1.1,471575,p0unvuqxmsj,stimuli/Cogs 119 List 4.wav,null,NA,NA,NA,NA,NA,NA,NA,/Users/martincz/GitHub/COGS119/group_wi26_false_recall/analysis/../data/raw_data/p0unvuqxmsj_1772139796099.csv
NA,79430,survey-text,15,2.0.0,552019,p0unvuqxmsj,NA,"{""Q0"":""gravel"",""Q1"":""riders"",""Q2"":""rode"",""Q3"":""sandpaper"",""Q4"":""jagged"",""Q5"":""bumpy"",""Q6"":""smooth"",""Q7"":""uneven"",""Q8"":""grass"",""Q9"":"""",""Q10"":"""",""Q11"":"""",""Q12"":"""",""Q13"":"""",""Q14"":""""}",free_recall,NA,NA,NA,NA,NA,NA,/Users/martincz/GitHub/COGS119/group_wi26_false_recall/analysis/../data/raw_data/p0unvuqxmsj_1772139796099.csv
NA,9240,html-keyboard-response,16,2.0.0,561262,p0unvuqxmsj,"<p>You will now receive another test.<p> 
      <p>Here you will be shown a series of words that you may have seen previously.<p> 
      <p>Your task is to rate your confidence of seeing these words on a 4 point scale<p>
      <p>Definitely new<p> 
      <p>Maybe new<p>
      <p>Maybe seen before<p>
      <p>Definitely seen before<p>
      <p>Press any key to continue<p> 
",NA,NA,NA,NA,NA,NA,NA,NA,/Users/martincz/GitHub/COGS119/group_wi26_false_recall/analysis/../data/raw_data/p0unvuqxmsj_1772139796099.csv
NA,5438,survey-likert,17,2.0.0,566704,p0unvuqxmsj,NA,"{""Q0"":3}",recognition,Needle,critical,3,[0],NA,NA,/Users/martincz/GitHub/COGS119/group_wi26_false_recall/analysis/../data/raw_data/p0unvuqxmsj_1772139796099.csv
NA,5498,survey-likert,18,2.0.0,572204,p0unvuqxmsj,NA,"{""Q0"":1}",recognition,Pin,studied,3,[0],NA,NA,/Users/martincz/GitHub/COGS119/group_wi26_false_recall/analysis/../data/raw_data/p0unvuqxmsj_1772139796099.csv
NA,3036,survey-likert,19,2.0.0,575242,p0unvuqxmsj,NA,"{""Q0"":0}",recognition,Stop,unrelated,3,[0],NA,NA,/Users/martincz/GitHub/COGS119/group_wi26_false_recall/analysis/../data/raw_data/p0unvuqxmsj_1772139796099.csv
NA,2627,survey-likert,20,2.0.0,577872,p0unvuqxmsj,NA,"{""Q0"":0}",recognition,Splinter,weakly related,3,[0],NA,NA,/Users/martincz/GitHub/COGS119/group_wi26_false_recall/analysis/../data/raw_data/p0unvuqxmsj_1772139796099.csv
NA,2656,survey-likert,21,2.0.0,580529,p0unvuqxmsj,NA,"{""Q0"":3}",recognition,Thread,studied,3,[0],NA,NA,/Users/martincz/GitHub/COGS119/group_wi26_false_recall/analysis/../data/raw_data/p0unvuqxmsj_1772139796099.csv
NA,3892,survey-likert,22,2.0.0,584423,p0unvuqxmsj,NA,"{""Q0"":0}",recognition,Stitch,weakly related,3,[0],NA,NA,/Users/martincz/GitHub/COGS119/group_wi26_false_recall/analysis/../data/raw_data/p0unvuqxmsj_1772139796099.csv
NA,3389,survey-likert,23,2.0.0,587814,p0unvuqxmsj,NA,"{""Q0"":1}",recognition,Fast,unrelated,3,[0],NA,NA,/Users/martincz/GitHub/COGS119/group_wi26_false_recall/analysis/../data/raw_data/p0unvuqxmsj_1772139796099.csv
NA,2277,survey-likert,24,2.0.0,590094,p0unvuqxmsj,NA,"{""Q0"":3}",recognition,Peak,studied,2,[0],NA,NA,/Users/martincz/GitHub/COGS119/group_wi26_false_recall/analysis/../data/raw_data/p0unvuqxmsj_1772139796099.csv
NA,2254,survey-likert,25,2.0.0,592350,p0unvuqxmsj,NA,"{""Q0"":3}",recognition,Hike,weakly related,2,[0],NA,NA,/Users/martincz/GitHub/COGS119/group_wi26_false_recall/analysis/../data/raw_data/p0unvuqxmsj_1772139796099.csv
NA,3033,survey-likert,26,2.0.0,595386,p0unvuqxmsj,NA,"{""Q0"":0}",recognition,Draw,unrelated,2,[0],NA,NA,/Users/martincz/GitHub/COGS119/group_wi26_false_recall/analysis/../data/raw_data/p0unvuqxmsj_1772139796099.csv
NA,5241,survey-likert,27,2.0.0,600629,p0unvuqxmsj,NA,"{""Q0"":1}",recognition,Mountain,critical,2,[0],NA,NA,/Users/martincz/GitHub/COGS119/group_wi26_false_recall/analysis/../data/raw_data/p0unvuqxmsj_1772139796099.csv
NA,2551,survey-likert,28,2.0.0,603181,p0unvuqxmsj,NA,"{""Q0"":0}",recognition,Car,unrelated,2,[0],NA,NA,/Users/martincz/GitHub/COGS119/group_wi26_false_recall/analysis/../data/raw_data/p0unvuqxmsj_1772139796099.csv
NA,2326,survey-likert,29,2.0.0,605509,p0unvuqxmsj,NA,"{""Q0"":3}",recognition,Hill,studied,2,[0],NA,NA,/Users/martincz/GitHub/COGS119/group_wi26_false_recall/analysis/../data/raw_data/p0unvuqxmsj_1772139796099.csv
NA,5125,survey-likert,30,2.0.0,610636,p0unvuqxmsj,NA,"{""Q0"":2}",recognition,Snow,weakly related,2,[0],NA,NA,/Users/martincz/GitHub/COGS119/group_wi26_false_recall/analysis/../data/raw_data/p0unvuqxmsj_1772139796099.csv
NA,2401,survey-likert,31,2.0.0,613039,p0unvuqxmsj,NA,"{""Q0"":0}",recognition,Cherry,weakly related,6,[0],NA,NA,/Users/martincz/GitHub/COGS119/group_wi26_false_recall/analysis/../data/raw_data/p0unvuqxmsj_1772139796099.csv
NA,3056,survey-likert,32,2.0.0,616097,p0unvuqxmsj,NA,"{""Q0"":3}",recognition,Sugar,studied,6,[0],NA,NA,/Users/martincz/GitHub/COGS119/group_wi26_false_recall/analysis/../data/raw_data/p0unvuqxmsj_1772139796099.csv
NA,2624,survey-likert,33,2.0.0,618723,p0unvuqxmsj,NA,"{""Q0"":0}",recognition,Door,unrelated,6,[0],NA,NA,/Users/martincz/GitHub/COGS119/group_wi26_false_recall/analysis/../data/raw_data/p0unvuqxmsj_1772139796099.csv
NA,2890,survey-likert,34,2.0.0,621615,p0unvuqxmsj,NA,"{""Q0"":3}",recognition,Sweet,critical,6,[0],NA,NA,/Users/martincz/GitHub/COGS119/group_wi26_false_recall/analysis/../data/raw_data/p0unvuqxmsj_1772139796099.csv
NA,2466,survey-likert,35,2.0.0,624082,p0unvuqxmsj,NA,"{""Q0"":0}",recognition,Ghost,unrelated,6,[0],NA,NA,/Users/martincz/GitHub/COGS119/group_wi26_false_recall/analysis/../data/raw_data/p0unvuqxmsj_1772139796099.csv
NA,4039,survey-likert,36,2.0.0,628123,p0unvuqxmsj,NA,"{""Q0"":3}",recognition,Sour,studied,6,[0],NA,NA,/Users/martincz/GitHub/COGS119/group_wi26_false_recall/analysis/../data/raw_data/p0unvuqxmsj_1772139796099.csv
NA,4617,survey-likert,37,2.0.0,632742,p0unvuqxmsj,NA,"{""Q0"":0}",recognition,Salty,weakly related,6,[0],NA,NA,/Users/martincz/GitHub/COGS119/group_wi26_false_recall/analysis/../data/raw_data/p0unvuqxmsj_1772139796099.csv
NA,3189,survey-likert,38,2.0.0,635933,p0unvuqxmsj,NA,"{""Q0"":3}",recognition,Couch,studied,1,[0],NA,NA,/Users/martincz/GitHub/COGS119/group_wi26_false_recall/analysis/../data/raw_data/p0unvuqxmsj_1772139796099.csv
NA,2230,survey-likert,39,2.0.0,638164,p0unvuqxmsj,NA,"{""Q0"":3}",recognition,Chair,critical,1,[0],NA,NA,/Users/martincz/GitHub/COGS119/group_wi26_false_recall/analysis/../data/raw_data/p0unvuqxmsj_1772139796099.csv
NA,2977,survey-likert,40,2.0.0,641143,p0unvuqxmsj,NA,"{""Q0"":0}",recognition,Cushion,weakly related,1,[0],NA,NA,/Users/martincz/GitHub/COGS119/group_wi26_false_recall/analysis/../data/raw_data/p0unvuqxmsj_1772139796099.csv
NA,2545,survey-likert,41,2.0.0,643690,p0unvuqxmsj,NA,"{""Q0"":1}",recognition,Ball,unrelated,1,[0],NA,NA,/Users/martincz/GitHub/COGS119/group_wi26_false_recall/analysis/../data/raw_data/p0unvuqxmsj_1772139796099.csv
NA,2619,survey-likert,42,2.0.0,646310,p0unvuqxmsj,NA,"{""Q0"":3}",recognition,Table,studied,1,[0],NA,NA,/Users/martincz/GitHub/COGS119/group_wi26_false_recall/analysis/../data/raw_data/p0unvuqxmsj_1772139796099.csv
NA,2793,survey-likert,43,2.0.0,649105,p0unvuqxmsj,NA,"{""Q0"":0}",recognition,Shoe,unrelated,1,[0],NA,NA,/Users/martincz/GitHub/COGS119/group_wi26_false_recall/analysis/../data/raw_data/p0unvuqxmsj_1772139796099.csv
NA,4331,survey-likert,44,2.0.0,653438,p0unvuqxmsj,NA,"{""Q0"":0}",recognition,Floor,weakly related,1,[0],NA,NA,/Users/martincz/GitHub/COGS119/group_wi26_false_recall/analysis/../data/raw_data/p0unvuqxmsj_1772139796099.csv
NA,3804,survey-likert,45,2.0.0,657243,p0unvuqxmsj,NA,"{""Q0"":0}",recognition,Calm,weakly related,5,[0],NA,NA,/Users/martincz/GitHub/COGS119/group_wi26_false_recall/analysis/../data/raw_data/p0unvuqxmsj_1772139796099.csv
NA,3176,survey-likert,46,2.0.0,660422,p0unvuqxmsj,NA,"{""Q0"":3}",recognition,Sleep,critical,5,[0],NA,NA,/Users/martincz/GitHub/COGS119/group_wi26_false_recall/analysis/../data/raw_data/p0unvuqxmsj_1772139796099.csv
NA,2441,survey-likert,47,2.0.0,662864,p0unvuqxmsj,NA,"{""Q0"":3}",recognition,Bed,studied,5,[0],NA,NA,/Users/martincz/GitHub/COGS119/group_wi26_false_recall/analysis/../data/raw_data/p0unvuqxmsj_1772139796099.csv
NA,2963,survey-likert,48,2.0.0,665829,p0unvuqxmsj,NA,"{""Q0"":0}",recognition,Chess,unrelated,5,[0],NA,NA,/Users/martincz/GitHub/COGS119/group_wi26_false_recall/analysis/../data/raw_data/p0unvuqxmsj_1772139796099.csv
NA,5312,survey-likert,49,2.0.0,671143,p0unvuqxmsj,NA,"{""Q0"":0}",recognition,Tired,studied,5,[0],NA,NA,/Users/martincz/GitHub/COGS119/group_wi26_false_recall/analysis/../data/raw_data/p0unvuqxmsj_1772139796099.csv
NA,4462,survey-likert,50,2.0.0,675608,p0unvuqxmsj,NA,"{""Q0"":1}",recognition,Fish,unrelated,5,[0],NA,NA,/Users/martincz/GitHub/COGS119/group_wi26_false_recall/analysis/../data/raw_data/p0unvuqxmsj_1772139796099.csv
NA,5877,survey-likert,51,2.0.0,681486,p0unvuqxmsj,NA,"{""Q0"":2}",recognition,Coma,weakly related,5,[0],NA,NA,/Users/martincz/GitHub/COGS119/group_wi26_false_recall/analysis/../data/raw_data/p0unvuqxmsj_1772139796099.csv
NA,4201,survey-likert,52,2.0.0,685689,p0unvuqxmsj,NA,"{""Q0"":0}",recognition,Click: Definitely New,attention_check,none,[0],NA,NA,/Users/martincz/GitHub/COGS119/group_wi26_false_recall/analysis/../data/raw_data/p0unvuqxmsj_1772139796099.csv
NA,5465,survey-likert,53,2.0.0,691156,p0unvuqxmsj,NA,"{""Q0"":0}",recognition,Project,unrelated,4,[0],NA,NA,/Users/martincz/GitHub/COGS119/group_wi26_false_recall/analysis/../data/raw_data/p0unvuqxmsj_1772139796099.csv
NA,6497,survey-likert,54,2.0.0,697654,p0unvuqxmsj,NA,"{""Q0"":2}",recognition,Touch,studied,4,[0],NA,NA,/Users/martincz/GitHub/COGS119/group_wi26_false_recall/analysis/../data/raw_data/p0unvuqxmsj_1772139796099.csv
NA,3893,survey-likert,55,2.0.0,701549,p0unvuqxmsj,NA,"{""Q0"":2}",recognition,Spike,weakly related,4,[0],NA,NA,/Users/martincz/GitHub/COGS119/group_wi26_false_recall/analysis/../data/raw_data/p0unvuqxmsj_1772139796099.csv
NA,4111,survey-likert,56,2.0.0,705662,p0unvuqxmsj,NA,"{""Q0"":1}",recognition,Chalk,weakly related,4,[0],NA,NA,/Users/martincz/GitHub/COGS119/group_wi26_false_recall/analysis/../data/raw_data/p0unvuqxmsj_1772139796099.csv
NA,4295,survey-likert,57,2.0.0,709959,p0unvuqxmsj,NA,"{""Q0"":0}",recognition,Key,unrelated,4,[0],NA,NA,/Users/martincz/GitHub/COGS119/group_wi26_false_recall/analysis/../data/raw_data/p0unvuqxmsj_1772139796099.csv
NA,3208,survey-likert,58,2.0.0,713169,p0unvuqxmsj,NA,"{""Q0"":3}",recognition,Smooth,studied,4,[0],NA,NA,/Users/martincz/GitHub/COGS119/group_wi26_false_recall/analysis/../data/raw_data/p0unvuqxmsj_1772139796099.csv
NA,2804,survey-likert,59,2.0.0,715974,p0unvuqxmsj,NA,"{""Q0"":3}",recognition,Rough,critical,4,[0],NA,NA,/Users/martincz/GitHub/COGS119/group_wi26_false_recall/analysis/../data/raw_data/p0unvuqxmsj_1772139796099.csv
NA,14168,survey-likert,60,2.0.0,730145,p0unvuqxmsj,NA,"{""Q0"":0,""Q1"":1,""Q2"":0,""Q3"":0,""Q4"":0,""Q5"":0}",NA,NA,NA,NA,"[0,1,2,3,4,5]",NA,NA,/Users/martincz/GitHub/COGS119/group_wi26_false_recall/analysis/../data/raw_data/p0unvuqxmsj_1772139796099.csv
NA,4442,html-keyboard-response,61,2.0.0,734589,p0unvuqxmsj,"
    <h2>Speed Memory Game</h2>
    <p>Press <strong>S</strong> if the word was studied.</p>
    <p>Press <strong>N</strong> if it was NOT studied.</p>
    <p>Respond as quickly as possible. (Please note it may be case sensitive)</p>
    <p>Press any key to begin.</p>
",NA,NA,NA,NA,NA,NA,NA,NA,/Users/martincz/GitHub/COGS119/group_wi26_false_recall/analysis/../data/raw_data/p0unvuqxmsj_1772139796099.csv
NA,1148,html-keyboard-response,62,2.0.0,735739,p0unvuqxmsj,<h1>Sour</h1>,s,speed_game,Sour,NA,NA,NA,s,TRUE,/Users/martincz/GitHub/COGS119/group_wi26_false_recall/analysis/../data/raw_data/p0unvuqxmsj_1772139796099.csv
NA,null,html-keyboard-response,63,2.0.0,736548,p0unvuqxmsj,<h2 style='color:green;'>Correct! </h2>,null,NA,NA,NA,NA,NA,NA,NA,/Users/martincz/GitHub/COGS119/group_wi26_false_recall/analysis/../data/raw_data/p0unvuqxmsj_1772139796099.csv
NA,709,html-keyboard-response,64,2.0.0,737259,p0unvuqxmsj,<h1>Sugar</h1>,s,speed_game,Sugar,NA,NA,NA,s,TRUE,/Users/martincz/GitHub/COGS119/group_wi26_false_recall/analysis/../data/raw_data/p0unvuqxmsj_1772139796099.csv
NA,null,html-keyboard-response,65,2.0.0,738062,p0unvuqxmsj,<h2 style='color:green;'>Correct! </h2>,null,NA,NA,NA,NA,NA,NA,NA,/Users/martincz/GitHub/COGS119/group_wi26_false_recall/analysis/../data/raw_data/p0unvuqxmsj_1772139796099.csv
NA,646,html-keyboard-response,66,2.0.0,738709,p0unvuqxmsj,<h1>Hill</h1>,s,speed_game,Hill,NA,NA,NA,s,TRUE,/Users/martincz/GitHub/COGS119/group_wi26_false_recall/analysis/../data/raw_data/p0unvuqxmsj_1772139796099.csv
NA,null,html-keyboard-response,67,2.0.0,739524,p0unvuqxmsj,<h2 style='color:green;'>Correct! </h2>,null,NA,NA,NA,NA,NA,NA,NA,/Users/martincz/GitHub/COGS119/group_wi26_false_recall/analysis/../data/raw_data/p0unvuqxmsj_1772139796099.csv
NA,635,html-keyboard-response,68,2.0.0,740160,p0unvuqxmsj,<h1>Couch</h1>,s,speed_game,Couch,NA,NA,NA,s,TRUE,/Users/martincz/GitHub/COGS119/group_wi26_false_recall/analysis/../data/raw_data/p0unvuqxmsj_1772139796099.csv
NA,null,html-keyboard-response,69,2.0.0,740968,p0unvuqxmsj,<h2 style='color:green;'>Correct! </h2>,null,NA,NA,NA,NA,NA,NA,NA,/Users/martincz/GitHub/COGS119/group_wi26_false_recall/analysis/../data/raw_data/p0unvuqxmsj_1772139796099.csv
NA,673,html-keyboard-response,70,2.0.0,741643,p0unvuqxmsj,<h1>Sweet</h1>,s,speed_game,Sweet,NA,NA,NA,n,FALSE,/Users/martincz/GitHub/COGS119/group_wi26_false_recall/analysis/../data/raw_data/p0unvuqxmsj_1772139796099.csv
NA,null,html-keyboard-response,71,2.0.0,742453,p0unvuqxmsj,<h2 style='color:red;'>Wrong </h2>,null,NA,NA,NA,NA,NA,NA,NA,/Users/martincz/GitHub/COGS119/group_wi26_false_recall/analysis/../data/raw_data/p0unvuqxmsj_1772139796099.csv
NA,1621,html-keyboard-response,72,2.0.0,744076,p0unvuqxmsj,<h1>Chair</h1>,s,speed_game,Chair,NA,NA,NA,n,FALSE,/Users/martincz/GitHub/COGS119/group_wi26_false_recall/analysis/../data/raw_data/p0unvuqxmsj_1772139796099.csv
NA,null,html-keyboard-response,73,2.0.0,744884,p0unvuqxmsj,<h2 style='color:red;'>Wrong </h2>,null,NA,NA,NA,NA,NA,NA,NA,/Users/martincz/GitHub/COGS119/group_wi26_false_recall/analysis/../data/raw_data/p0unvuqxmsj_1772139796099.csv
NA,999,html-keyboard-response,74,2.0.0,745884,p0unvuqxmsj,<h1>Thread</h1>,s,speed_game,Thread,NA,NA,NA,s,TRUE,/Users/martincz/GitHub/COGS119/group_wi26_false_recall/analysis/../data/raw_data/p0unvuqxmsj_1772139796099.csv
NA,null,html-keyboard-response,75,2.0.0,746693,p0unvuqxmsj,<h2 style='color:green;'>Correct! </h2>,null,NA,NA,NA,NA,NA,NA,NA,/Users/martincz/GitHub/COGS119/group_wi26_false_recall/analysis/../data/raw_data/p0unvuqxmsj_1772139796099.csv
NA,1479,html-keyboard-response,76,2.0.0,748172,p0unvuqxmsj,<h1>Mountain</h1>,n,speed_game,Mountain,NA,NA,NA,n,TRUE,/Users/martincz/GitHub/COGS119/group_wi26_false_recall/analysis/../data/raw_data/p0unvuqxmsj_1772139796099.csv
NA,null,html-keyboard-response,77,2.0.0,748979,p0unvuqxmsj,<h2 style='color:green;'>Correct! </h2>,null,NA,NA,NA,NA,NA,NA,NA,/Users/martincz/GitHub/COGS119/group_wi26_false_recall/analysis/../data/raw_data/p0unvuqxmsj_1772139796099.csv
NA,924,html-keyboard-response,78,2.0.0,749904,p0unvuqxmsj,<h1>Pin</h1>,s,speed_game,Pin,NA,NA,NA,s,TRUE,/Users/martincz/GitHub/COGS119/group_wi26_false_recall/analysis/../data/raw_data/p0unvuqxmsj_1772139796099.csv
NA,null,html-keyboard-response,79,2.0.0,750705,p0unvuqxmsj,<h2 style='color:green;'>Correct! </h2>,null,NA,NA,NA,NA,NA,NA,NA,/Users/martincz/GitHub/COGS119/group_wi26_false_recall/analysis/../data/raw_data/p0unvuqxmsj_1772139796099.csv
NA,1079,html-keyboard-response,80,2.0.0,751785,p0unvuqxmsj,<h1>Click N</h1>,n,speed_attention_check,NA,NA,NA,NA,NA,TRUE,/Users/martincz/GitHub/COGS119/group_wi26_false_recall/analysis/../data/raw_data/p0unvuqxmsj_1772139796099.csv
NA,1977,html-keyboard-response,81,2.0.0,753763,p0unvuqxmsj,<h1>Tired</h1>,n,speed_game,Tired,NA,NA,NA,s,FALSE,/Users/martincz/GitHub/COGS119/group_wi26_false_recall/analysis/../data/raw_data/p0unvuqxmsj_1772139796099.csv
NA,null,html-keyboard-response,82,2.0.0,754578,p0unvuqxmsj,<h2 style='color:red;'>Wrong </h2>,null,NA,NA,NA,NA,NA,NA,NA,/Users/martincz/GitHub/COGS119/group_wi26_false_recall/analysis/../data/raw_data/p0unvuqxmsj_1772139796099.csv
NA,669,html-keyboard-response,83,2.0.0,755249,p0unvuqxmsj,<h1>Bed</h1>,s,speed_game,Bed,NA,NA,NA,s,TRUE,/Users/martincz/GitHub/COGS119/group_wi26_false_recall/analysis/../data/raw_data/p0unvuqxmsj_1772139796099.csv
NA,null,html-keyboard-response,84,2.0.0,756062,p0unvuqxmsj,<h2 style='color:green;'>Correct! </h2>,null,NA,NA,NA,NA,NA,NA,NA,/Users/martincz/GitHub/COGS119/group_wi26_false_recall/analysis/../data/raw_data/p0unvuqxmsj_1772139796099.csv
NA,756,html-keyboard-response,85,2.0.0,756819,p0unvuqxmsj,<h1>Peak</h1>,s,speed_game,Peak,NA,NA,NA,s,TRUE,/Users/martincz/GitHub/COGS119/group_wi26_false_recall/analysis/../data/raw_data/p0unvuqxmsj_1772139796099.csv
NA,null,html-keyboard-response,86,2.0.0,757633,p0unvuqxmsj,<h2 style='color:green;'>Correct! </h2>,null,NA,NA,NA,NA,NA,NA,NA,/Users/martincz/GitHub/COGS119/group_wi26_false_recall/analysis/../data/raw_data/p0unvuqxmsj_1772139796099.csv
NA,748,html-keyboard-response,87,2.0.0,758383,p0unvuqxmsj,<h1>Table</h1>,s,speed_game,Table,NA,NA,NA,s,TRUE,/Users/martincz/GitHub/COGS119/group_wi26_false_recall/analysis/../data/raw_data/p0unvuqxmsj_1772139796099.csv
NA,null,html-keyboard-response,88,2.0.0,759190,p0unvuqxmsj,<h2 style='color:green;'>Correct! </h2>,null,NA,NA,NA,NA,NA,NA,NA,/Users/martincz/GitHub/COGS119/group_wi26_false_recall/analysis/../data/raw_data/p0unvuqxmsj_1772139796099.csv
NA,977,html-keyboard-response,89,2.0.0,760168,p0unvuqxmsj,<h1>Sleep</h1>,n,speed_game,Sleep,NA,NA,NA,n,TRUE,/Users/martincz/GitHub/COGS119/group_wi26_false_recall/analysis/../data/raw_data/p0unvuqxmsj_1772139796099.csv
NA,null,html-keyboard-response,90,2.0.0,760979,p0unvuqxmsj,<h2 style='color:green;'>Correct! </h2>,null,NA,NA,NA,NA,NA,NA,NA,/Users/martincz/GitHub/COGS119/group_wi26_false_recall/analysis/../data/raw_data/p0unvuqxmsj_1772139796099.csv
NA,1474,html-keyboard-response,91,2.0.0,762454,p0unvuqxmsj,<h1>Touch</h1>,n,speed_game,Touch,NA,NA,NA,s,FALSE,/Users/martincz/GitHub/COGS119/group_wi26_false_recall/analysis/../data/raw_data/p0unvuqxmsj_1772139796099.csv
NA,null,html-keyboard-response,92,2.0.0,763256,p0unvuqxmsj,<h2 style='color:red;'>Wrong </h2>,null,NA,NA,NA,NA,NA,NA,NA,/Users/martincz/GitHub/COGS119/group_wi26_false_recall/analysis/../data/raw_data/p0unvuqxmsj_1772139796099.csv
NA,1561,html-keyboard-response,93,2.0.0,764818,p0unvuqxmsj,<h1>Needle</h1>,s,speed_game,Needle,NA,NA,NA,n,FALSE,/Users/martincz/GitHub/COGS119/group_wi26_false_recall/analysis/../data/raw_data/p0unvuqxmsj_1772139796099.csv
NA,null,html-keyboard-response,94,2.0.0,765624,p0unvuqxmsj,<h2 style='color:red;'>Wrong </h2>,null,NA,NA,NA,NA,NA,NA,NA,/Users/martincz/GitHub/COGS119/group_wi26_false_recall/analysis/../data/raw_data/p0unvuqxmsj_1772139796099.csv
NA,926,html-keyboard-response,95,2.0.0,766551,p0unvuqxmsj,<h1>Rough</h1>,s,speed_game,Rough,NA,NA,NA,n,FALSE,/Users/martincz/GitHub/COGS119/group_wi26_false_recall/analysis/../data/raw_data/p0unvuqxmsj_1772139796099.csv
NA,null,html-keyboard-response,96,2.0.0,767366,p0unvuqxmsj,<h2 style='color:red;'>Wrong </h2>,null,NA,NA,NA,NA,NA,NA,NA,/Users/martincz/GitHub/COGS119/group_wi26_false_recall/analysis/../data/raw_data/p0unvuqxmsj_1772139796099.csv
NA,744,html-keyboard-response,97,2.0.0,768111,p0unvuqxmsj,<h1>Smooth</h1>,s,speed_game,Smooth,NA,NA,NA,s,TRUE,/Users/martincz/GitHub/COGS119/group_wi26_false_recall/analysis/../data/raw_data/p0unvuqxmsj_1772139796099.csv
NA,null,html-keyboard-response,98,2.0.0,768916,p0unvuqxmsj,<h2 style='color:green;'>Correct! </h2>,null,NA,NA,NA,NA,NA,NA,NA,/Users/martincz/GitHub/COGS119/group_wi26_false_recall/analysis/../data/raw_data/p0unvuqxmsj_1772139796099.csv
NA,2837,html-keyboard-response,99,2.0.0,771755,p0unvuqxmsj,"
      <h2>Game Results</h2>
      <p>Accuracy: 67%</p>
      <p>Average RT: 1037 ms</p>
      <p>Press any key to continue.</p>
",NA,NA,NA,NA,NA,NA,NA,NA,/Users/martincz/GitHub/COGS119/group_wi26_false_recall/analysis/../data/raw_data/p0unvuqxmsj_1772139796099.csv
NA,88339,survey-text,100,2.0.0,860099,p0unvuqxmsj,NA,"{""Q0"":""Testing false memory using words that describe a similar setting."",""Q1"":""Focused"",""Q2"":""Moderate. I understood what the questionnaire was supposed to be and in the back of my head, I knew that the general big terms were not used but rather similar ones. for example, \""sleep\"" wasn't given but words like nap, slumber were."",""Q3"":""No"",""Q4"":""It was very clear!""}",NA,NA,NA,NA,NA,NA,NA,/Users/martincz/GitHub/COGS119/group_wi26_false_recall/analysis/../data/raw_data/p0unvuqxmsj_1772139796099.csv
TRUE,37640,fullscreen,0,2.1.0,38652,p18qqcvw3zt,NA,NA,NA,NA,NA,NA,NA,NA,NA,/Users/martincz/GitHub/COGS119/group_wi26_false_recall/analysis/../data/raw_data/p18qqcvw3zt_1772138691987.csv
NA,107,html-keyboard-response,1,2.0.0,38761,p18qqcvw3zt,Welcome to the False Recall experiment. <p>Press any key to begin.</p>,AudioVolumeUp,NA,NA,NA,NA,NA,NA,NA,/Users/martincz/GitHub/COGS119/group_wi26_false_recall/analysis/../data/raw_data/p18qqcvw3zt_1772138691987.csv
NA,3116,survey-text,2,2.0.0,41894,p18qqcvw3zt,NA,"{""participant_id"":""jaguar""}",NA,NA,NA,NA,NA,NA,NA,/Users/martincz/GitHub/COGS119/group_wi26_false_recall/analysis/../data/raw_data/p18qqcvw3zt_1772138691987.csv
NA,2689,html-keyboard-response,3,2.0.0,44585,p18qqcvw3zt,"<p>Listen to the following words. Do your best to memorize as many words as accurately as possible.<p>
      <p>The first trial will begin after this screen<p>
        <p> Press any key to continue<p> 
",AudioVolumeUp,NA,NA,NA,NA,NA,NA,NA,/Users/martincz/GitHub/COGS119/group_wi26_false_recall/analysis/../data/raw_data/p18qqcvw3zt_1772138691987.csv
NA,null,audio-keyboard-response,4,2.1.1,71641,p18qqcvw3zt,stimuli/Cogs 119 List 4.wav,null,NA,NA,NA,NA,NA,NA,NA,/Users/martincz/GitHub/COGS119/group_wi26_false_recall/analysis/../data/raw_data/p18qqcvw3zt_1772138691987.csv
NA,95009,survey-text,5,2.0.0,167672,p18qqcvw3zt,NA,"{""Q0"":""smooth"",""Q1"":""bumpy"",""Q2"":""road"",""Q3"":""rough"",""Q4"":""coarse"",""Q5"":""sand"",""Q6"":""sandpaper"",""Q7"":""boards"",""Q8"":""riders"",""Q9"":""uneven"",""Q10"":""gravel"",""Q11"":""stone"",""Q12"":"""",""Q13"":"""",""Q14"":""""}",free_recall,NA,NA,NA,NA,NA,NA,/Users/martincz/GitHub/COGS119/group_wi26_false_recall/analysis/../data/raw_data/p18qqcvw3zt_1772138691987.csv
NA,null,audio-keyboard-response,6,2.1.1,193920,p18qqcvw3zt,stimuli/Cogs 119 List 5.wav,null,NA,NA,NA,NA,NA,NA,NA,/Users/martincz/GitHub/COGS119/group_wi26_false_recall/analysis/../data/raw_data/p18qqcvw3zt_1772138691987.csv
NA,66302,survey-text,7,2.0.0,261244,p18qqcvw3zt,NA,"{""Q0"":""bed"",""Q1"":""rest"",""Q2"":""awake"",""Q3"":""dream"",""Q4"":""slumber"",""Q5"":""snooze"",""Q6"":""yawn"",""Q7"":""awake"",""Q8"":""drowsy"",""Q9"":""blanket"",""Q10"":""nap"",""Q11"":""snooze"",""Q12"":"""",""Q13"":"""",""Q14"":""""}",free_recall,NA,NA,NA,NA,NA,NA,/Users/martincz/GitHub/COGS119/group_wi26_false_recall/analysis/../data/raw_data/p18qqcvw3zt_1772138691987.csv
NA,null,audio-keyboard-response,8,2.1.1,287589,p18qqcvw3zt,stimuli/Cogs 119 List 2.wav,null,NA,NA,NA,NA,NA,NA,NA,/Users/martincz/GitHub/COGS119/group_wi26_false_recall/analysis/../data/raw_data/p18qqcvw3zt_1772138691987.csv
NA,58393,survey-text,9,2.0.0,346999,p18qqcvw3zt,NA,"{""Q0"":""bike"",""Q1"":""climber"",""Q2"":""range"",""Q3"":""ski"",""Q4"":""mountain"",""Q5"":""valley"",""Q6"":""top"",""Q7"":""summit"",""Q8"":""molehill"",""Q9"":""steep"",""Q10"":""goat"",""Q11"":""climb"",""Q12"":"""",""Q13"":"""",""Q14"":""""}",free_recall,NA,NA,NA,NA,NA,NA,/Users/martincz/GitHub/COGS119/group_wi26_false_recall/analysis/../data/raw_data/p18qqcvw3zt_1772138691987.csv
NA,null,audio-keyboard-response,10,2.1.1,373011,p18qqcvw3zt,stimuli/Cogs 119 List 3.wav,null,NA,NA,NA,NA,NA,NA,NA,/Users/martincz/GitHub/COGS119/group_wi26_false_recall/analysis/../data/raw_data/p18qqcvw3zt_1772138691987.csv
NA,39886,survey-text,11,2.0.0,413913,p18qqcvw3zt,NA,"{""Q0"":""syringe"",""Q1"":""claw"",""Q2"":""knitting"",""Q3"":""thorn"",""Q4"":""prick"",""Q5"":""point"",""Q6"":""sharp"",""Q7"":""hurt"",""Q8"":""haystack"",""Q9"":""needle"",""Q10"":""sewing"",""Q11"":""thimble"",""Q12"":"""",""Q13"":"""",""Q14"":""""}",free_recall,NA,NA,NA,NA,NA,NA,/Users/martincz/GitHub/COGS119/group_wi26_false_recall/analysis/../data/raw_data/p18qqcvw3zt_1772138691987.csv
NA,null,audio-keyboard-response,12,2.1.1,440427,p18qqcvw3zt,stimuli/Cogs 119 List 6.wav,null,NA,NA,NA,NA,NA,NA,NA,/Users/martincz/GitHub/COGS119/group_wi26_false_recall/analysis/../data/raw_data/p18qqcvw3zt_1772138691987.csv
NA,51546,survey-text,13,2.0.0,492984,p18qqcvw3zt,NA,"{""Q0"":""cake"",""Q1"":""tart"",""Q2"":""pie"",""Q3"":""chocolate"",""Q4"":""heart"",""Q5"":""sour"",""Q6"":""candy"",""Q7"":""good"",""Q8"":""taste"",""Q9"":"""",""Q10"":"""",""Q11"":"""",""Q12"":"""",""Q13"":"""",""Q14"":""""}",free_recall,NA,NA,NA,NA,NA,NA,/Users/martincz/GitHub/COGS119/group_wi26_false_recall/analysis/../data/raw_data/p18qqcvw3zt_1772138691987.csv
NA,null,audio-keyboard-response,14,2.1.1,519342,p18qqcvw3zt,stimuli/Cogs 119 List 1.wav,null,NA,NA,NA,NA,NA,NA,NA,/Users/martincz/GitHub/COGS119/group_wi26_false_recall/analysis/../data/raw_data/p18qqcvw3zt_1772138691987.csv
NA,55415,survey-text,15,2.0.0,575781,p18qqcvw3zt,NA,"{""Q0"":""rocking"",""Q1"":""bench"",""Q2"":""table"",""Q3"":""stool"",""Q4"":""sit"",""Q5"":""sitting"",""Q6"":""legs"",""Q7"":""recliner"",""Q8"":""couch"",""Q9"":""desk"",""Q10"":"""",""Q11"":"""",""Q12"":"""",""Q13"":"""",""Q14"":""""}",free_recall,NA,NA,NA,NA,NA,NA,/Users/martincz/GitHub/COGS119/group_wi26_false_recall/analysis/../data/raw_data/p18qqcvw3zt_1772138691987.csv
NA,6093,html-keyboard-response,16,2.0.0,581882,p18qqcvw3zt,"<p>You will now receive another test.<p> 
      <p>Here you will be shown a series of words that you may have seen previously.<p> 
      <p>Your task is to rate your confidence of seeing these words on a 4 point scale<p>
      <p>Definitely new<p> 
      <p>Maybe new<p>
      <p>Maybe seen before<p>
      <p>Definitely seen before<p>
      <p>Press any key to continue<p> 
",NA,NA,NA,NA,NA,NA,NA,NA,/Users/martincz/GitHub/COGS119/group_wi26_false_recall/analysis/../data/raw_data/p18qqcvw3zt_1772138691987.csv
NA,6638,survey-likert,17,2.0.0,588525,p18qqcvw3zt,NA,"{""Q0"":1}",recognition,Touch,studied,4,[0],NA,NA,/Users/martincz/GitHub/COGS119/group_wi26_false_recall/analysis/../data/raw_data/p18qqcvw3zt_1772138691987.csv
NA,3894,survey-likert,18,2.0.0,592423,p18qqcvw3zt,NA,"{""Q0"":0}",recognition,Key,unrelated,4,[0],NA,NA,/Users/martincz/GitHub/COGS119/group_wi26_false_recall/analysis/../data/raw_data/p18qqcvw3zt_1772138691987.csv
NA,2035,survey-likert,19,2.0.0,594462,p18qqcvw3zt,NA,"{""Q0"":0}",recognition,Chalk,weakly related,4,[0],NA,NA,/Users/martincz/GitHub/COGS119/group_wi26_false_recall/analysis/../data/raw_data/p18qqcvw3zt_1772138691987.csv
NA,1950,survey-likert,20,2.0.0,596415,p18qqcvw3zt,NA,"{""Q0"":0}",recognition,Project,unrelated,4,[0],NA,NA,/Users/martincz/GitHub/COGS119/group_wi26_false_recall/analysis/../data/raw_data/p18qqcvw3zt_1772138691987.csv
NA,2202,survey-likert,21,2.0.0,598621,p18qqcvw3zt,NA,"{""Q0"":3}",recognition,Rough,critical,4,[0],NA,NA,/Users/martincz/GitHub/COGS119/group_wi26_false_recall/analysis/../data/raw_data/p18qqcvw3zt_1772138691987.csv
NA,5571,survey-likert,22,2.0.0,604195,p18qqcvw3zt,NA,"{""Q0"":2}",recognition,Spike,weakly related,4,[0],NA,NA,/Users/martincz/GitHub/COGS119/group_wi26_false_recall/analysis/../data/raw_data/p18qqcvw3zt_1772138691987.csv
NA,1768,survey-likert,23,2.0.0,605967,p18qqcvw3zt,NA,"{""Q0"":3}",recognition,Smooth,studied,4,[0],NA,NA,/Users/martincz/GitHub/COGS119/group_wi26_false_recall/analysis/../data/raw_data/p18qqcvw3zt_1772138691987.csv
NA,4455,survey-likert,24,2.0.0,610425,p18qqcvw3zt,NA,"{""Q0"":0}",recognition,Click: Definitely New,attention_check,none,[0],NA,NA,/Users/martincz/GitHub/COGS119/group_wi26_false_recall/analysis/../data/raw_data/p18qqcvw3zt_1772138691987.csv
NA,5023,survey-likert,25,2.0.0,615452,p18qqcvw3zt,NA,"{""Q0"":2}",recognition,Tired,studied,5,[0],NA,NA,/Users/martincz/GitHub/COGS119/group_wi26_false_recall/analysis/../data/raw_data/p18qqcvw3zt_1772138691987.csv
NA,1629,survey-likert,26,2.0.0,617084,p18qqcvw3zt,NA,"{""Q0"":3}",recognition,Sleep,critical,5,[0],NA,NA,/Users/martincz/GitHub/COGS119/group_wi26_false_recall/analysis/../data/raw_data/p18qqcvw3zt_1772138691987.csv
NA,2405,survey-likert,27,2.0.0,619492,p18qqcvw3zt,NA,"{""Q0"":3}",recognition,Bed,studied,5,[0],NA,NA,/Users/martincz/GitHub/COGS119/group_wi26_false_recall/analysis/../data/raw_data/p18qqcvw3zt_1772138691987.csv
NA,4496,survey-likert,28,2.0.0,623992,p18qqcvw3zt,NA,"{""Q0"":0}",recognition,Calm,weakly related,5,[0],NA,NA,/Users/martincz/GitHub/COGS119/group_wi26_false_recall/analysis/../data/raw_data/p18qqcvw3zt_1772138691987.csv
NA,1741,survey-likert,29,2.0.0,625736,p18qqcvw3zt,NA,"{""Q0"":0}",recognition,Fish,unrelated,5,[0],NA,NA,/Users/martincz/GitHub/COGS119/group_wi26_false_recall/analysis/../data/raw_data/p18qqcvw3zt_1772138691987.csv
NA,3574,survey-likert,30,2.0.0,629312,p18qqcvw3zt,NA,"{""Q0"":0}",recognition,Coma,weakly related,5,[0],NA,NA,/Users/martincz/GitHub/COGS119/group_wi26_false_recall/analysis/../data/raw_data/p18qqcvw3zt_1772138691987.csv
NA,2308,survey-likert,31,2.0.0,631623,p18qqcvw3zt,NA,"{""Q0"":0}",recognition,Chess,unrelated,5,[0],NA,NA,/Users/martincz/GitHub/COGS119/group_wi26_false_recall/analysis/../data/raw_data/p18qqcvw3zt_1772138691987.csv
NA,2601,survey-likert,32,2.0.0,634228,p18qqcvw3zt,NA,"{""Q0"":3}",recognition,Peak,studied,2,[0],NA,NA,/Users/martincz/GitHub/COGS119/group_wi26_false_recall/analysis/../data/raw_data/p18qqcvw3zt_1772138691987.csv
NA,3784,survey-likert,33,2.0.0,638016,p18qqcvw3zt,NA,"{""Q0"":0}",recognition,Snow,weakly related,2,[0],NA,NA,/Users/martincz/GitHub/COGS119/group_wi26_false_recall/analysis/../data/raw_data/p18qqcvw3zt_1772138691987.csv
NA,3090,survey-likert,34,2.0.0,641110,p18qqcvw3zt,NA,"{""Q0"":2}",recognition,Hill,studied,2,[0],NA,NA,/Users/martincz/GitHub/COGS119/group_wi26_false_recall/analysis/../data/raw_data/p18qqcvw3zt_1772138691987.csv
NA,2565,survey-likert,35,2.0.0,643684,p18qqcvw3zt,NA,"{""Q0"":0}",recognition,Draw,unrelated,2,[0],NA,NA,/Users/martincz/GitHub/COGS119/group_wi26_false_recall/analysis/../data/raw_data/p18qqcvw3zt_1772138691987.csv
NA,2345,survey-likert,36,2.0.0,646032,p18qqcvw3zt,NA,"{""Q0"":1}",recognition,Hike,weakly related,2,[0],NA,NA,/Users/martincz/GitHub/COGS119/group_wi26_false_recall/analysis/../data/raw_data/p18qqcvw3zt_1772138691987.csv
NA,1876,survey-likert,37,2.0.0,647911,p18qqcvw3zt,NA,"{""Q0"":3}",recognition,Mountain,critical,2,[0],NA,NA,/Users/martincz/GitHub/COGS119/group_wi26_false_recall/analysis/../data/raw_data/p18qqcvw3zt_1772138691987.csv
NA,1867,survey-likert,38,2.0.0,649780,p18qqcvw3zt,NA,"{""Q0"":0}",recognition,Car,unrelated,2,[0],NA,NA,/Users/martincz/GitHub/COGS119/group_wi26_false_recall/analysis/../data/raw_data/p18qqcvw3zt_1772138691987.csv
NA,3860,survey-likert,39,2.0.0,653645,p18qqcvw3zt,NA,"{""Q0"":0}",recognition,Fast,unrelated,3,[0],NA,NA,/Users/martincz/GitHub/COGS119/group_wi26_false_recall/analysis/../data/raw_data/p18qqcvw3zt_1772138691987.csv
NA,2606,survey-likert,40,2.0.0,656254,p18qqcvw3zt,NA,"{""Q0"":2}",recognition,Stitch,weakly related,3,[0],NA,NA,/Users/martincz/GitHub/COGS119/group_wi26_false_recall/analysis/../data/raw_data/p18qqcvw3zt_1772138691987.csv
NA,2084,survey-likert,41,2.0.0,658340,p18qqcvw3zt,NA,"{""Q0"":2}",recognition,Thread,studied,3,[0],NA,NA,/Users/martincz/GitHub/COGS119/group_wi26_false_recall/analysis/../data/raw_data/p18qqcvw3zt_1772138691987.csv
NA,2462,survey-likert,42,2.0.0,660805,p18qqcvw3zt,NA,"{""Q0"":3}",recognition,Needle,critical,3,[0],NA,NA,/Users/martincz/GitHub/COGS119/group_wi26_false_recall/analysis/../data/raw_data/p18qqcvw3zt_1772138691987.csv
NA,5617,survey-likert,43,2.0.0,666425,p18qqcvw3zt,NA,"{""Q0"":0}",recognition,Stop,unrelated,3,[0],NA,NA,/Users/martincz/GitHub/COGS119/group_wi26_false_recall/analysis/../data/raw_data/p18qqcvw3zt_1772138691987.csv
NA,2713,survey-likert,44,2.0.0,669141,p18qqcvw3zt,NA,"{""Q0"":2}",recognition,Splinter,weakly related,3,[0],NA,NA,/Users/martincz/GitHub/COGS119/group_wi26_false_recall/analysis/../data/raw_data/p18qqcvw3zt_1772138691987.csv
NA,7410,survey-likert,45,2.0.0,676554,p18qqcvw3zt,NA,"{""Q0"":1}",recognition,Pin,studied,3,[0],NA,NA,/Users/martincz/GitHub/COGS119/group_wi26_false_recall/analysis/../data/raw_data/p18qqcvw3zt_1772138691987.csv
NA,1993,survey-likert,46,2.0.0,678550,p18qqcvw3zt,NA,"{""Q0"":0}",recognition,Salty,weakly related,6,[0],NA,NA,/Users/martincz/GitHub/COGS119/group_wi26_false_recall/analysis/../data/raw_data/p18qqcvw3zt_1772138691987.csv
NA,2825,survey-likert,47,2.0.0,681378,p18qqcvw3zt,NA,"{""Q0"":3}",recognition,Sour,studied,6,[0],NA,NA,/Users/martincz/GitHub/COGS119/group_wi26_false_recall/analysis/../data/raw_data/p18qqcvw3zt_1772138691987.csv
NA,3442,survey-likert,48,2.0.0,684823,p18qqcvw3zt,NA,"{""Q0"":2}",recognition,Sweet,critical,6,[0],NA,NA,/Users/martincz/GitHub/COGS119/group_wi26_false_recall/analysis/../data/raw_data/p18qqcvw3zt_1772138691987.csv
NA,1922,survey-likert,49,2.0.0,686748,p18qqcvw3zt,NA,"{""Q0"":2}",recognition,Sugar,studied,6,[0],NA,NA,/Users/martincz/GitHub/COGS119/group_wi26_false_recall/analysis/../data/raw_data/p18qqcvw3zt_1772138691987.csv
NA,1551,survey-likert,50,2.0.0,688302,p18qqcvw3zt,NA,"{""Q0"":0}",recognition,Ghost,unrelated,6,[0],NA,NA,/Users/martincz/GitHub/COGS119/group_wi26_false_recall/analysis/../data/raw_data/p18qqcvw3zt_1772138691987.csv
NA,1529,survey-likert,51,2.0.0,689834,p18qqcvw3zt,NA,"{""Q0"":0}",recognition,Cherry,weakly related,6,[0],NA,NA,/Users/martincz/GitHub/COGS119/group_wi26_false_recall/analysis/../data/raw_data/p18qqcvw3zt_1772138691987.csv
NA,3331,survey-likert,52,2.0.0,693168,p18qqcvw3zt,NA,"{""Q0"":0}",recognition,Door,unrelated,6,[0],NA,NA,/Users/martincz/GitHub/COGS119/group_wi26_false_recall/analysis/../data/raw_data/p18qqcvw3zt_1772138691987.csv
NA,1402,survey-likert,53,2.0.0,694573,p18qqcvw3zt,NA,"{""Q0"":0}",recognition,Floor,weakly related,1,[0],NA,NA,/Users/martincz/GitHub/COGS119/group_wi26_false_recall/analysis/../data/raw_data/p18qqcvw3zt_1772138691987.csv
NA,2693,survey-likert,54,2.0.0,697268,p18qqcvw3zt,NA,"{""Q0"":3}",recognition,Chair,critical,1,[0],NA,NA,/Users/martincz/GitHub/COGS119/group_wi26_false_recall/analysis/../data/raw_data/p18qqcvw3zt_1772138691987.csv
NA,2803,survey-likert,55,2.0.0,700075,p18qqcvw3zt,NA,"{""Q0"":0}",recognition,Ball,unrelated,1,[0],NA,NA,/Users/martincz/GitHub/COGS119/group_wi26_false_recall/analysis/../data/raw_data/p18qqcvw3zt_1772138691987.csv
NA,2173,survey-likert,56,2.0.0,702257,p18qqcvw3zt,NA,"{""Q0"":2}",recognition,Cushion,weakly related,1,[0],NA,NA,/Users/martincz/GitHub/COGS119/group_wi26_false_recall/analysis/../data/raw_data/p18qqcvw3zt_1772138691987.csv
NA,1734,survey-likert,57,2.0.0,703994,p18qqcvw3zt,NA,"{""Q0"":3}",recognition,Couch,studied,1,[0],NA,NA,/Users/martincz/GitHub/COGS119/group_wi26_false_recall/analysis/../data/raw_data/p18qqcvw3zt_1772138691987.csv
NA,1523,survey-likert,58,2.0.0,705520,p18qqcvw3zt,NA,"{""Q0"":3}",recognition,Table,studied,1,[0],NA,NA,/Users/martincz/GitHub/COGS119/group_wi26_false_recall/analysis/../data/raw_data/p18qqcvw3zt_1772138691987.csv
NA,2525,survey-likert,59,2.0.0,708047,p18qqcvw3zt,NA,"{""Q0"":0}",recognition,Shoe,unrelated,1,[0],NA,NA,/Users/martincz/GitHub/COGS119/group_wi26_false_recall/analysis/../data/raw_data/p18qqcvw3zt_1772138691987.csv
NA,9593,survey-likert,60,2.0.0,717644,p18qqcvw3zt,NA,"{""Q0"":0,""Q1"":0,""Q2"":0,""Q3"":0,""Q4"":0,""Q5"":0}",NA,NA,NA,NA,"[0,1,2,3,4,5]",NA,NA,/Users/martincz/GitHub/COGS119/group_wi26_false_recall/analysis/../data/raw_data/p18qqcvw3zt_1772138691987.csv
NA,28696,html-keyboard-response,61,2.0.0,746343,p18qqcvw3zt,"
    <h2>Speed Memory Game</h2>
    <p>Press <strong>S</strong> if the word was studied.</p>
    <p>Press <strong>N</strong> if it was NOT studied.</p>
    <p>Respond as quickly as possible. (Please note it may be case sensitive)</p>
    <p>Press any key to begin.</p>
",NA,NA,NA,NA,NA,NA,NA,NA,/Users/martincz/GitHub/COGS119/group_wi26_false_recall/analysis/../data/raw_data/p18qqcvw3zt_1772138691987.csv
NA,1982,html-keyboard-response,62,2.0.0,748328,p18qqcvw3zt,<h1>Rough</h1>,s,speed_game,Rough,NA,NA,NA,n,FALSE,/Users/martincz/GitHub/COGS119/group_wi26_false_recall/analysis/../data/raw_data/p18qqcvw3zt_1772138691987.csv
NA,null,html-keyboard-response,63,2.0.0,749137,p18qqcvw3zt,<h2 style='color:red;'>Wrong </h2>,null,NA,NA,NA,NA,NA,NA,NA,/Users/martincz/GitHub/COGS119/group_wi26_false_recall/analysis/../data/raw_data/p18qqcvw3zt_1772138691987.csv
NA,9117,html-keyboard-response,64,2.0.0,758256,p18qqcvw3zt,<h1>Tired</h1>,s,speed_game,Tired,NA,NA,NA,s,TRUE,/Users/martincz/GitHub/COGS119/group_wi26_false_recall/analysis/../data/raw_data/p18qqcvw3zt_1772138691987.csv
NA,null,html-keyboard-response,65,2.0.0,759060,p18qqcvw3zt,<h2 style='color:green;'>Correct! </h2>,null,NA,NA,NA,NA,NA,NA,NA,/Users/martincz/GitHub/COGS119/group_wi26_false_recall/analysis/../data/raw_data/p18qqcvw3zt_1772138691987.csv
NA,707,html-keyboard-response,66,2.0.0,759769,p18qqcvw3zt,<h1>Smooth</h1>,s,speed_game,Smooth,NA,NA,NA,s,TRUE,/Users/martincz/GitHub/COGS119/group_wi26_false_recall/analysis/../data/raw_data/p18qqcvw3zt_1772138691987.csv
NA,null,html-keyboard-response,67,2.0.0,760583,p18qqcvw3zt,<h2 style='color:green;'>Correct! </h2>,null,NA,NA,NA,NA,NA,NA,NA,/Users/martincz/GitHub/COGS119/group_wi26_false_recall/analysis/../data/raw_data/p18qqcvw3zt_1772138691987.csv
NA,921,html-keyboard-response,68,2.0.0,761506,p18qqcvw3zt,<h1>Table</h1>,s,speed_game,Table,NA,NA,NA,s,TRUE,/Users/martincz/GitHub/COGS119/group_wi26_false_recall/analysis/../data/raw_data/p18qqcvw3zt_1772138691987.csv
NA,null,html-keyboard-response,69,2.0.0,762318,p18qqcvw3zt,<h2 style='color:green;'>Correct! </h2>,null,NA,NA,NA,NA,NA,NA,NA,/Users/martincz/GitHub/COGS119/group_wi26_false_recall/analysis/../data/raw_data/p18qqcvw3zt_1772138691987.csv
NA,662,html-keyboard-response,70,2.0.0,762982,p18qqcvw3zt,<h1>Couch</h1>,s,speed_game,Couch,NA,NA,NA,s,TRUE,/Users/martincz/GitHub/COGS119/group_wi26_false_recall/analysis/../data/raw_data/p18qqcvw3zt_1772138691987.csv
NA,null,html-keyboard-response,71,2.0.0,763796,p18qqcvw3zt,<h2 style='color:green;'>Correct! </h2>,null,NA,NA,NA,NA,NA,NA,NA,/Users/martincz/GitHub/COGS119/group_wi26_false_recall/analysis/../data/raw_data/p18qqcvw3zt_1772138691987.csv
NA,614,html-keyboard-response,72,2.0.0,764412,p18qqcvw3zt,<h1>Mountain</h1>,s,speed_game,Mountain,NA,NA,NA,n,FALSE,/Users/martincz/GitHub/COGS119/group_wi26_false_recall/analysis/../data/raw_data/p18qqcvw3zt_1772138691987.csv
NA,null,html-keyboard-response,73,2.0.0,765218,p18qqcvw3zt,<h2 style='color:red;'>Wrong </h2>,null,NA,NA,NA,NA,NA,NA,NA,/Users/martincz/GitHub/COGS119/group_wi26_false_recall/analysis/../data/raw_data/p18qqcvw3zt_1772138691987.csv
NA,2062,html-keyboard-response,74,2.0.0,767281,p18qqcvw3zt,<h1>Needle</h1>,s,speed_game,Needle,NA,NA,NA,n,FALSE,/Users/martincz/GitHub/COGS119/group_wi26_false_recall/analysis/../data/raw_data/p18qqcvw3zt_1772138691987.csv
NA,null,html-keyboard-response,75,2.0.0,768093,p18qqcvw3zt,<h2 style='color:red;'>Wrong </h2>,null,NA,NA,NA,NA,NA,NA,NA,/Users/martincz/GitHub/COGS119/group_wi26_false_recall/analysis/../data/raw_data/p18qqcvw3zt_1772138691987.csv
NA,4284,html-keyboard-response,76,2.0.0,772379,p18qqcvw3zt,<h1>Bed</h1>,s,speed_game,Bed,NA,NA,NA,s,TRUE,/Users/martincz/GitHub/COGS119/group_wi26_false_recall/analysis/../data/raw_data/p18qqcvw3zt_1772138691987.csv
NA,null,html-keyboard-response,77,2.0.0,773187,p18qqcvw3zt,<h2 style='color:green;'>Correct! </h2>,null,NA,NA,NA,NA,NA,NA,NA,/Users/martincz/GitHub/COGS119/group_wi26_false_recall/analysis/../data/raw_data/p18qqcvw3zt_1772138691987.csv
NA,1393,html-keyboard-response,78,2.0.0,774582,p18qqcvw3zt,<h1>Sour</h1>,s,speed_game,Sour,NA,NA,NA,s,TRUE,/Users/martincz/GitHub/COGS119/group_wi26_false_recall/analysis/../data/raw_data/p18qqcvw3zt_1772138691987.csv
NA,null,html-keyboard-response,79,2.0.0,775398,p18qqcvw3zt,<h2 style='color:green;'>Correct! </h2>,null,NA,NA,NA,NA,NA,NA,NA,/Users/martincz/GitHub/COGS119/group_wi26_false_recall/analysis/../data/raw_data/p18qqcvw3zt_1772138691987.csv
NA,1771,html-keyboard-response,80,2.0.0,777171,p18qqcvw3zt,<h1>Chair</h1>,s,speed_game,Chair,NA,NA,NA,n,FALSE,/Users/martincz/GitHub/COGS119/group_wi26_false_recall/analysis/../data/raw_data/p18qqcvw3zt_1772138691987.csv
NA,null,html-keyboard-response,81,2.0.0,777983,p18qqcvw3zt,<h2 style='color:red;'>Wrong </h2>,null,NA,NA,NA,NA,NA,NA,NA,/Users/martincz/GitHub/COGS119/group_wi26_false_recall/analysis/../data/raw_data/p18qqcvw3zt_1772138691987.csv
NA,2006,html-keyboard-response,82,2.0.0,779991,p18qqcvw3zt,<h1>Sugar</h1>,s,speed_game,Sugar,NA,NA,NA,s,TRUE,/Users/martincz/GitHub/COGS119/group_wi26_false_recall/analysis/../data/raw_data/p18qqcvw3zt_1772138691987.csv
NA,null,html-keyboard-response,83,2.0.0,780800,p18qqcvw3zt,<h2 style='color:green;'>Correct! </h2>,null,NA,NA,NA,NA,NA,NA,NA,/Users/martincz/GitHub/COGS119/group_wi26_false_recall/analysis/../data/raw_data/p18qqcvw3zt_1772138691987.csv
NA,2512,html-keyboard-response,84,2.0.0,783313,p18qqcvw3zt,<h1>Sleep</h1>,s,speed_game,Sleep,NA,NA,NA,n,FALSE,/Users/martincz/GitHub/COGS119/group_wi26_false_recall/analysis/../data/raw_data/p18qqcvw3zt_1772138691987.csv
NA,null,html-keyboard-response,85,2.0.0,784117,p18qqcvw3zt,<h2 style='color:red;'>Wrong </h2>,null,NA,NA,NA,NA,NA,NA,NA,/Users/martincz/GitHub/COGS119/group_wi26_false_recall/analysis/../data/raw_data/p18qqcvw3zt_1772138691987.csv
NA,830,html-keyboard-response,86,2.0.0,784950,p18qqcvw3zt,<h1>Click N</h1>,n,speed_attention_check,NA,NA,NA,NA,NA,TRUE,/Users/martincz/GitHub/COGS119/group_wi26_false_recall/analysis/../data/raw_data/p18qqcvw3zt_1772138691987.csv
NA,1333,html-keyboard-response,87,2.0.0,786284,p18qqcvw3zt,<h1>Peak</h1>,s,speed_game,Peak,NA,NA,NA,s,TRUE,/Users/martincz/GitHub/COGS119/group_wi26_false_recall/analysis/../data/raw_data/p18qqcvw3zt_1772138691987.csv
NA,null,html-keyboard-response,88,2.0.0,787096,p18qqcvw3zt,<h2 style='color:green;'>Correct! </h2>,null,NA,NA,NA,NA,NA,NA,NA,/Users/martincz/GitHub/COGS119/group_wi26_false_recall/analysis/../data/raw_data/p18qqcvw3zt_1772138691987.csv
NA,1123,html-keyboard-response,89,2.0.0,788221,p18qqcvw3zt,<h1>Touch</h1>,n,speed_game,Touch,NA,NA,NA,s,FALSE,/Users/martincz/GitHub/COGS119/group_wi26_false_recall/analysis/../data/raw_data/p18qqcvw3zt_1772138691987.csv
NA,null,html-keyboard-response,90,2.0.0,789026,p18qqcvw3zt,<h2 style='color:red;'>Wrong </h2>,null,NA,NA,NA,NA,NA,NA,NA,/Users/martincz/GitHub/COGS119/group_wi26_false_recall/analysis/../data/raw_data/p18qqcvw3zt_1772138691987.csv
NA,3285,html-keyboard-response,91,2.0.0,792312,p18qqcvw3zt,<h1>Pin</h1>,n,speed_game,Pin,NA,NA,NA,s,FALSE,/Users/martincz/GitHub/COGS119/group_wi26_false_recall/analysis/../data/raw_data/p18qqcvw3zt_1772138691987.csv
NA,null,html-keyboard-response,92,2.0.0,793116,p18qqcvw3zt,<h2 style='color:red;'>Wrong </h2>,null,NA,NA,NA,NA,NA,NA,NA,/Users/martincz/GitHub/COGS119/group_wi26_false_recall/analysis/../data/raw_data/p18qqcvw3zt_1772138691987.csv
NA,1700,html-keyboard-response,93,2.0.0,794818,p18qqcvw3zt,<h1>Thread</h1>,s,speed_game,Thread,NA,NA,NA,s,TRUE,/Users/martincz/GitHub/COGS119/group_wi26_false_recall/analysis/../data/raw_data/p18qqcvw3zt_1772138691987.csv
NA,null,html-keyboard-response,94,2.0.0,795624,p18qqcvw3zt,<h2 style='color:green;'>Correct! </h2>,null,NA,NA,NA,NA,NA,NA,NA,/Users/martincz/GitHub/COGS119/group_wi26_false_recall/analysis/../data/raw_data/p18qqcvw3zt_1772138691987.csv
NA,3164,html-keyboard-response,95,2.0.0,798790,p18qqcvw3zt,<h1>Hill</h1>,s,speed_game,Hill,NA,NA,NA,s,TRUE,/Users/martincz/GitHub/COGS119/group_wi26_false_recall/analysis/../data/raw_data/p18qqcvw3zt_1772138691987.csv
NA,null,html-keyboard-response,96,2.0.0,799600,p18qqcvw3zt,<h2 style='color:green;'>Correct! </h2>,null,NA,NA,NA,NA,NA,NA,NA,/Users/martincz/GitHub/COGS119/group_wi26_false_recall/analysis/../data/raw_data/p18qqcvw3zt_1772138691987.csv
NA,2381,html-keyboard-response,97,2.0.0,801983,p18qqcvw3zt,<h1>Sweet</h1>,n,speed_game,Sweet,NA,NA,NA,n,TRUE,/Users/martincz/GitHub/COGS119/group_wi26_false_recall/analysis/../data/raw_data/p18qqcvw3zt_1772138691987.csv
NA,null,html-keyboard-response,98,2.0.0,802787,p18qqcvw3zt,<h2 style='color:green;'>Correct! </h2>,null,NA,NA,NA,NA,NA,NA,NA,/Users/martincz/GitHub/COGS119/group_wi26_false_recall/analysis/../data/raw_data/p18qqcvw3zt_1772138691987.csv
NA,1869,html-keyboard-response,99,2.0.0,804659,p18qqcvw3zt,"
      <h2>Game Results</h2>
      <p>Accuracy: 61%</p>
      <p>Average RT: 2279 ms</p>
      <p>Press any key to continue.</p>
",NA,NA,NA,NA,NA,NA,NA,NA,/Users/martincz/GitHub/COGS119/group_wi26_false_recall/analysis/../data/raw_data/p18qqcvw3zt_1772138691987.csv
NA,105126,survey-text,100,2.0.0,909809,p18qqcvw3zt,NA,"{""Q0"":""Participants' ability to assume and make up words that they think they remember in the list due to their semantic associations."",""Q1"":""Not confident."",""Q2"":""Quite difficult, each time I could only confidently remember around 10 words out of the 15."",""Q3"":""N/A"",""Q4"":""N/A""}",NA,NA,NA,NA,NA,NA,NA,/Users/martincz/GitHub/COGS119/group_wi26_false_recall/analysis/../data/raw_data/p18qqcvw3zt_1772138691987.csv
TRUE,5886,fullscreen,0,2.1.0,6911,p24767oe8gg,NA,NA,NA,NA,NA,NA,NA,NA,NA,/Users/martincz/GitHub/COGS119/group_wi26_false_recall/analysis/../data/raw_data/p24767oe8gg_1772139666227.csv
NA,2094,html-keyboard-response,1,2.0.0,9009,p24767oe8gg,Welcome to the False Recall experiment. <p>Press any key to begin.</p>,NA,NA,NA,NA,NA,NA,NA,NA,/Users/martincz/GitHub/COGS119/group_wi26_false_recall/analysis/../data/raw_data/p24767oe8gg_1772139666227.csv
NA,2825,survey-text,2,2.0.0,11841,p24767oe8gg,NA,"{""participant_id"":""elk""}",NA,NA,NA,NA,NA,NA,NA,/Users/martincz/GitHub/COGS119/group_wi26_false_recall/analysis/../data/raw_data/p24767oe8gg_1772139666227.csv
NA,6212,html-keyboard-response,3,2.0.0,18055,p24767oe8gg,"<p>Listen to the following words. Do your best to memorize as many words as accurately as possible.<p>
      <p>The first trial will begin after this screen<p>
        <p> Press any key to continue<p> 
",AudioVolumeUp,NA,NA,NA,NA,NA,NA,NA,/Users/martincz/GitHub/COGS119/group_wi26_false_recall/analysis/../data/raw_data/p24767oe8gg_1772139666227.csv
NA,null,audio-keyboard-response,4,2.1.1,46037,p24767oe8gg,stimuli/Cogs 119 List 3.wav,null,NA,NA,NA,NA,NA,NA,NA,/Users/martincz/GitHub/COGS119/group_wi26_false_recall/analysis/../data/raw_data/p24767oe8gg_1772139666227.csv
NA,31956,survey-text,5,2.0.0,79019,p24767oe8gg,NA,"{""Q0"":""thread"",""Q1"":""pin"",""Q2"":""sewing"",""Q3"":""sharp"",""Q4"":""nimble"",""Q5"":""hurt"",""Q6"":"""",""Q7"":"""",""Q8"":"""",""Q9"":"""",""Q10"":"""",""Q11"":"""",""Q12"":"""",""Q13"":"""",""Q14"":""""}",free_recall,NA,NA,NA,NA,NA,NA,/Users/martincz/GitHub/COGS119/group_wi26_false_recall/analysis/../data/raw_data/p24767oe8gg_1772139666227.csv
NA,null,audio-keyboard-response,6,2.1.1,104739,p24767oe8gg,stimuli/Cogs 119 List 5.wav,null,NA,NA,NA,NA,NA,NA,NA,/Users/martincz/GitHub/COGS119/group_wi26_false_recall/analysis/../data/raw_data/p24767oe8gg_1772139666227.csv
NA,41391,survey-text,7,2.0.0,147155,p24767oe8gg,NA,"{""Q0"":""bed"",""Q1"":""nap"",""Q2"":""snooze"",""Q3"":""peace"",""Q4"":""drowsy"",""Q5"":""dream"",""Q6"":""wake"",""Q7"":"""",""Q8"":"""",""Q9"":"""",""Q10"":"""",""Q11"":"""",""Q12"":"""",""Q13"":"""",""Q14"":""""}",free_recall,NA,NA,NA,NA,NA,NA,/Users/martincz/GitHub/COGS119/group_wi26_false_recall/analysis/../data/raw_data/p24767oe8gg_1772139666227.csv
NA,null,audio-keyboard-response,8,2.1.1,173311,p24767oe8gg,stimuli/Cogs 119 List 1.wav,null,NA,NA,NA,NA,NA,NA,NA,/Users/martincz/GitHub/COGS119/group_wi26_false_recall/analysis/../data/raw_data/p24767oe8gg_1772139666227.csv
NA,23058,survey-text,9,2.0.0,197380,p24767oe8gg,NA,"{""Q0"":""desk"",""Q1"":""sofa"",""Q2"":""bench"",""Q3"":""swivel"",""Q4"":""rocking"",""Q5"":""sitting"",""Q6"":""wood"",""Q7"":"""",""Q8"":"""",""Q9"":"""",""Q10"":"""",""Q11"":"""",""Q12"":"""",""Q13"":"""",""Q14"":""""}",free_recall,NA,NA,NA,NA,NA,NA,/Users/martincz/GitHub/COGS119/group_wi26_false_recall/analysis/../data/raw_data/p24767oe8gg_1772139666227.csv
NA,null,audio-keyboard-response,10,2.1.1,223041,p24767oe8gg,stimuli/Cogs 119 List 2.wav,null,NA,NA,NA,NA,NA,NA,NA,/Users/martincz/GitHub/COGS119/group_wi26_false_recall/analysis/../data/raw_data/p24767oe8gg_1772139666227.csv
NA,26803,survey-text,11,2.0.0,250857,p24767oe8gg,NA,"{""Q0"":""range"",""Q1"":""ski"",""Q2"":""peak"",""Q3"":""goat"",""Q4"":""plain"",""Q5"":""glacier"",""Q6"":"""",""Q7"":"""",""Q8"":"""",""Q9"":"""",""Q10"":"""",""Q11"":"""",""Q12"":"""",""Q13"":"""",""Q14"":""""}",free_recall,NA,NA,NA,NA,NA,NA,/Users/martincz/GitHub/COGS119/group_wi26_false_recall/analysis/../data/raw_data/p24767oe8gg_1772139666227.csv
NA,null,audio-keyboard-response,12,2.1.1,277151,p24767oe8gg,stimuli/Cogs 119 List 4.wav,null,NA,NA,NA,NA,NA,NA,NA,/Users/martincz/GitHub/COGS119/group_wi26_false_recall/analysis/../data/raw_data/p24767oe8gg_1772139666227.csv
NA,19432,survey-text,13,2.0.0,297590,p24767oe8gg,NA,"{""Q0"":""grounds"",""Q1"":""gravel"",""Q2"":""sand"",""Q3"":""boards"",""Q4"":""riders"",""Q5"":""rough"",""Q6"":"""",""Q7"":"""",""Q8"":"""",""Q9"":"""",""Q10"":"""",""Q11"":"""",""Q12"":"""",""Q13"":"""",""Q14"":""""}",free_recall,NA,NA,NA,NA,NA,NA,/Users/martincz/GitHub/COGS119/group_wi26_false_recall/analysis/../data/raw_data/p24767oe8gg_1772139666227.csv
NA,null,audio-keyboard-response,14,2.1.1,323442,p24767oe8gg,stimuli/Cogs 119 List 6.wav,null,NA,NA,NA,NA,NA,NA,NA,/Users/martincz/GitHub/COGS119/group_wi26_false_recall/analysis/../data/raw_data/p24767oe8gg_1772139666227.csv
NA,20016,survey-text,15,2.0.0,344472,p24767oe8gg,NA,"{""Q0"":""heart"",""Q1"":""tart"",""Q2"":""cake"",""Q3"":""pie"",""Q4"":""sour"",""Q5"":""candy"",""Q6"":"""",""Q7"":"""",""Q8"":"""",""Q9"":"""",""Q10"":"""",""Q11"":"""",""Q12"":"""",""Q13"":"""",""Q14"":""""}",free_recall,NA,NA,NA,NA,NA,NA,/Users/martincz/GitHub/COGS119/group_wi26_false_recall/analysis/../data/raw_data/p24767oe8gg_1772139666227.csv
NA,8311,html-keyboard-response,16,2.0.0,352786,p24767oe8gg,"<p>You will now receive another test.<p> 
      <p>Here you will be shown a series of words that you may have seen previously.<p> 
      <p>Your task is to rate your confidence of seeing these words on a 4 point scale<p>
      <p>Definitely new<p> 
      <p>Maybe new<p>
      <p>Maybe seen before<p>
      <p>Definitely seen before<p>
      <p>Press any key to continue<p> 
",NA,NA,NA,NA,NA,NA,NA,NA,/Users/martincz/GitHub/COGS119/group_wi26_false_recall/analysis/../data/raw_data/p24767oe8gg_1772139666227.csv
NA,5844,survey-likert,17,2.0.0,358634,p24767oe8gg,NA,"{""Q0"":2}",recognition,Needle,critical,3,[0],NA,NA,/Users/martincz/GitHub/COGS119/group_wi26_false_recall/analysis/../data/raw_data/p24767oe8gg_1772139666227.csv
NA,2366,survey-likert,18,2.0.0,361002,p24767oe8gg,NA,"{""Q0"":2}",recognition,Stitch,weakly related,3,[0],NA,NA,/Users/martincz/GitHub/COGS119/group_wi26_false_recall/analysis/../data/raw_data/p24767oe8gg_1772139666227.csv
NA,2538,survey-likert,19,2.0.0,363542,p24767oe8gg,NA,"{""Q0"":2}",recognition,Thread,studied,3,[0],NA,NA,/Users/martincz/GitHub/COGS119/group_wi26_false_recall/analysis/../data/raw_data/p24767oe8gg_1772139666227.csv
NA,2583,survey-likert,20,2.0.0,366129,p24767oe8gg,NA,"{""Q0"":1}",recognition,Splinter,weakly related,3,[0],NA,NA,/Users/martincz/GitHub/COGS119/group_wi26_false_recall/analysis/../data/raw_data/p24767oe8gg_1772139666227.csv
NA,2758,survey-likert,21,2.0.0,368889,p24767oe8gg,NA,"{""Q0"":0}",recognition,Stop,unrelated,3,[0],NA,NA,/Users/martincz/GitHub/COGS119/group_wi26_false_recall/analysis/../data/raw_data/p24767oe8gg_1772139666227.csv
NA,2564,survey-likert,22,2.0.0,371456,p24767oe8gg,NA,"{""Q0"":0}",recognition,Fast,unrelated,3,[0],NA,NA,/Users/martincz/GitHub/COGS119/group_wi26_false_recall/analysis/../data/raw_data/p24767oe8gg_1772139666227.csv
NA,3260,survey-likert,23,2.0.0,374719,p24767oe8gg,NA,"{""Q0"":3}",recognition,Pin,studied,3,[0],NA,NA,/Users/martincz/GitHub/COGS119/group_wi26_false_recall/analysis/../data/raw_data/p24767oe8gg_1772139666227.csv
NA,2831,survey-likert,24,2.0.0,377552,p24767oe8gg,NA,"{""Q0"":2}",recognition,Sleep,critical,5,[0],NA,NA,/Users/martincz/GitHub/COGS119/group_wi26_false_recall/analysis/../data/raw_data/p24767oe8gg_1772139666227.csv
NA,2292,survey-likert,25,2.0.0,379847,p24767oe8gg,NA,"{""Q0"":3}",recognition,Bed,studied,5,[0],NA,NA,/Users/martincz/GitHub/COGS119/group_wi26_false_recall/analysis/../data/raw_data/p24767oe8gg_1772139666227.csv
NA,3232,survey-likert,26,2.0.0,383081,p24767oe8gg,NA,"{""Q0"":0}",recognition,Fish,unrelated,5,[0],NA,NA,/Users/martincz/GitHub/COGS119/group_wi26_false_recall/analysis/../data/raw_data/p24767oe8gg_1772139666227.csv
NA,6377,survey-likert,27,2.0.0,389461,p24767oe8gg,NA,"{""Q0"":0}",recognition,Calm,weakly related,5,[0],NA,NA,/Users/martincz/GitHub/COGS119/group_wi26_false_recall/analysis/../data/raw_data/p24767oe8gg_1772139666227.csv
NA,2367,survey-likert,28,2.0.0,391830,p24767oe8gg,NA,"{""Q0"":0}",recognition,Coma,weakly related,5,[0],NA,NA,/Users/martincz/GitHub/COGS119/group_wi26_false_recall/analysis/../data/raw_data/p24767oe8gg_1772139666227.csv
NA,2008,survey-likert,29,2.0.0,393840,p24767oe8gg,NA,"{""Q0"":2}",recognition,Tired,studied,5,[0],NA,NA,/Users/martincz/GitHub/COGS119/group_wi26_false_recall/analysis/../data/raw_data/p24767oe8gg_1772139666227.csv
NA,2411,survey-likert,30,2.0.0,396254,p24767oe8gg,NA,"{""Q0"":0}",recognition,Chess,unrelated,5,[0],NA,NA,/Users/martincz/GitHub/COGS119/group_wi26_false_recall/analysis/../data/raw_data/p24767oe8gg_1772139666227.csv
NA,2803,survey-likert,31,2.0.0,399060,p24767oe8gg,NA,"{""Q0"":0}",recognition,Click: Definitely New,attention_check,none,[0],NA,NA,/Users/martincz/GitHub/COGS119/group_wi26_false_recall/analysis/../data/raw_data/p24767oe8gg_1772139666227.csv
NA,2368,survey-likert,32,2.0.0,401431,p24767oe8gg,NA,"{""Q0"":0}",recognition,Shoe,unrelated,1,[0],NA,NA,/Users/martincz/GitHub/COGS119/group_wi26_false_recall/analysis/../data/raw_data/p24767oe8gg_1772139666227.csv
NA,2041,survey-likert,33,2.0.0,403474,p24767oe8gg,NA,"{""Q0"":1}",recognition,Floor,weakly related,1,[0],NA,NA,/Users/martincz/GitHub/COGS119/group_wi26_false_recall/analysis/../data/raw_data/p24767oe8gg_1772139666227.csv
NA,2882,survey-likert,34,2.0.0,406360,p24767oe8gg,NA,"{""Q0"":3}",recognition,Table,studied,1,[0],NA,NA,/Users/martincz/GitHub/COGS119/group_wi26_false_recall/analysis/../data/raw_data/p24767oe8gg_1772139666227.csv
NA,2079,survey-likert,35,2.0.0,408441,p24767oe8gg,NA,"{""Q0"":2}",recognition,Chair,critical,1,[0],NA,NA,/Users/martincz/GitHub/COGS119/group_wi26_false_recall/analysis/../data/raw_data/p24767oe8gg_1772139666227.csv
NA,2060,survey-likert,36,2.0.0,410504,p24767oe8gg,NA,"{""Q0"":1}",recognition,Ball,unrelated,1,[0],NA,NA,/Users/martincz/GitHub/COGS119/group_wi26_false_recall/analysis/../data/raw_data/p24767oe8gg_1772139666227.csv
NA,2513,survey-likert,37,2.0.0,413020,p24767oe8gg,NA,"{""Q0"":1}",recognition,Cushion,weakly related,1,[0],NA,NA,/Users/martincz/GitHub/COGS119/group_wi26_false_recall/analysis/../data/raw_data/p24767oe8gg_1772139666227.csv
NA,2538,survey-likert,38,2.0.0,415560,p24767oe8gg,NA,"{""Q0"":3}",recognition,Couch,studied,1,[0],NA,NA,/Users/martincz/GitHub/COGS119/group_wi26_false_recall/analysis/../data/raw_data/p24767oe8gg_1772139666227.csv
NA,2193,survey-likert,39,2.0.0,417756,p24767oe8gg,NA,"{""Q0"":1}",recognition,Draw,unrelated,2,[0],NA,NA,/Users/martincz/GitHub/COGS119/group_wi26_false_recall/analysis/../data/raw_data/p24767oe8gg_1772139666227.csv
NA,3189,survey-likert,40,2.0.0,420948,p24767oe8gg,NA,"{""Q0"":2}",recognition,Hill,studied,2,[0],NA,NA,/Users/martincz/GitHub/COGS119/group_wi26_false_recall/analysis/../data/raw_data/p24767oe8gg_1772139666227.csv
NA,2221,survey-likert,41,2.0.0,423171,p24767oe8gg,NA,"{""Q0"":2}",recognition,Snow,weakly related,2,[0],NA,NA,/Users/martincz/GitHub/COGS119/group_wi26_false_recall/analysis/../data/raw_data/p24767oe8gg_1772139666227.csv
NA,4350,survey-likert,42,2.0.0,427524,p24767oe8gg,NA,"{""Q0"":0}",recognition,Car,unrelated,2,[0],NA,NA,/Users/martincz/GitHub/COGS119/group_wi26_false_recall/analysis/../data/raw_data/p24767oe8gg_1772139666227.csv
NA,2194,survey-likert,43,2.0.0,429721,p24767oe8gg,NA,"{""Q0"":1}",recognition,Hike,weakly related,2,[0],NA,NA,/Users/martincz/GitHub/COGS119/group_wi26_false_recall/analysis/../data/raw_data/p24767oe8gg_1772139666227.csv
NA,2449,survey-likert,44,2.0.0,432172,p24767oe8gg,NA,"{""Q0"":3}",recognition,Peak,studied,2,[0],NA,NA,/Users/martincz/GitHub/COGS119/group_wi26_false_recall/analysis/../data/raw_data/p24767oe8gg_1772139666227.csv
NA,2303,survey-likert,45,2.0.0,434478,p24767oe8gg,NA,"{""Q0"":2}",recognition,Mountain,critical,2,[0],NA,NA,/Users/martincz/GitHub/COGS119/group_wi26_false_recall/analysis/../data/raw_data/p24767oe8gg_1772139666227.csv
NA,2291,survey-likert,46,2.0.0,436772,p24767oe8gg,NA,"{""Q0"":1}",recognition,Key,unrelated,4,[0],NA,NA,/Users/martincz/GitHub/COGS119/group_wi26_false_recall/analysis/../data/raw_data/p24767oe8gg_1772139666227.csv
NA,2739,survey-likert,47,2.0.0,439514,p24767oe8gg,NA,"{""Q0"":3}",recognition,Rough,critical,4,[0],NA,NA,/Users/martincz/GitHub/COGS119/group_wi26_false_recall/analysis/../data/raw_data/p24767oe8gg_1772139666227.csv
NA,4156,survey-likert,48,2.0.0,443672,p24767oe8gg,NA,"{""Q0"":1}",recognition,Smooth,studied,4,[0],NA,NA,/Users/martincz/GitHub/COGS119/group_wi26_false_recall/analysis/../data/raw_data/p24767oe8gg_1772139666227.csv
NA,2323,survey-likert,49,2.0.0,445998,p24767oe8gg,NA,"{""Q0"":0}",recognition,Project,unrelated,4,[0],NA,NA,/Users/martincz/GitHub/COGS119/group_wi26_false_recall/analysis/../data/raw_data/p24767oe8gg_1772139666227.csv
NA,3156,survey-likert,50,2.0.0,449157,p24767oe8gg,NA,"{""Q0"":1}",recognition,Touch,studied,4,[0],NA,NA,/Users/martincz/GitHub/COGS119/group_wi26_false_recall/analysis/../data/raw_data/p24767oe8gg_1772139666227.csv
NA,3582,survey-likert,51,2.0.0,452742,p24767oe8gg,NA,"{""Q0"":1}",recognition,Spike,weakly related,4,[0],NA,NA,/Users/martincz/GitHub/COGS119/group_wi26_false_recall/analysis/../data/raw_data/p24767oe8gg_1772139666227.csv
NA,2769,survey-likert,52,2.0.0,455514,p24767oe8gg,NA,"{""Q0"":1}",recognition,Chalk,weakly related,4,[0],NA,NA,/Users/martincz/GitHub/COGS119/group_wi26_false_recall/analysis/../data/raw_data/p24767oe8gg_1772139666227.csv
NA,4066,survey-likert,53,2.0.0,459583,p24767oe8gg,NA,"{""Q0"":1}",recognition,Door,unrelated,6,[0],NA,NA,/Users/martincz/GitHub/COGS119/group_wi26_false_recall/analysis/../data/raw_data/p24767oe8gg_1772139666227.csv
NA,3593,survey-likert,54,2.0.0,463178,p24767oe8gg,NA,"{""Q0"":0}",recognition,Salty,weakly related,6,[0],NA,NA,/Users/martincz/GitHub/COGS119/group_wi26_false_recall/analysis/../data/raw_data/p24767oe8gg_1772139666227.csv
NA,2531,survey-likert,55,2.0.0,465711,p24767oe8gg,NA,"{""Q0"":1}",recognition,Sugar,studied,6,[0],NA,NA,/Users/martincz/GitHub/COGS119/group_wi26_false_recall/analysis/../data/raw_data/p24767oe8gg_1772139666227.csv
NA,2660,survey-likert,56,2.0.0,468374,p24767oe8gg,NA,"{""Q0"":1}",recognition,Cherry,weakly related,6,[0],NA,NA,/Users/martincz/GitHub/COGS119/group_wi26_false_recall/analysis/../data/raw_data/p24767oe8gg_1772139666227.csv
NA,2330,survey-likert,57,2.0.0,470707,p24767oe8gg,NA,"{""Q0"":2}",recognition,Sweet,critical,6,[0],NA,NA,/Users/martincz/GitHub/COGS119/group_wi26_false_recall/analysis/../data/raw_data/p24767oe8gg_1772139666227.csv
NA,2140,survey-likert,58,2.0.0,472850,p24767oe8gg,NA,"{""Q0"":3}",recognition,Sour,studied,6,[0],NA,NA,/Users/martincz/GitHub/COGS119/group_wi26_false_recall/analysis/../data/raw_data/p24767oe8gg_1772139666227.csv
NA,2695,survey-likert,59,2.0.0,475548,p24767oe8gg,NA,"{""Q0"":1}",recognition,Ghost,unrelated,6,[0],NA,NA,/Users/martincz/GitHub/COGS119/group_wi26_false_recall/analysis/../data/raw_data/p24767oe8gg_1772139666227.csv
NA,22315,survey-likert,60,2.0.0,497866,p24767oe8gg,NA,"{""Q0"":1,""Q1"":1,""Q2"":0,""Q3"":0,""Q4"":1,""Q5"":1}",NA,NA,NA,NA,"[0,1,2,3,4,5]",NA,NA,/Users/martincz/GitHub/COGS119/group_wi26_false_recall/analysis/../data/raw_data/p24767oe8gg_1772139666227.csv
NA,5661,html-keyboard-response,61,2.0.0,503529,p24767oe8gg,"
    <h2>Speed Memory Game</h2>
    <p>Press <strong>S</strong> if the word was studied.</p>
    <p>Press <strong>N</strong> if it was NOT studied.</p>
    <p>Respond as quickly as possible. (Please note it may be case sensitive)</p>
    <p>Press any key to begin.</p>
",NA,NA,NA,NA,NA,NA,NA,NA,/Users/martincz/GitHub/COGS119/group_wi26_false_recall/analysis/../data/raw_data/p24767oe8gg_1772139666227.csv
NA,1130,html-keyboard-response,62,2.0.0,504660,p24767oe8gg,<h1>Mountain</h1>,n,speed_game,Mountain,NA,NA,NA,n,TRUE,/Users/martincz/GitHub/COGS119/group_wi26_false_recall/analysis/../data/raw_data/p24767oe8gg_1772139666227.csv
NA,null,html-keyboard-response,63,2.0.0,505464,p24767oe8gg,<h2 style='color:green;'>Correct! </h2>,null,NA,NA,NA,NA,NA,NA,NA,/Users/martincz/GitHub/COGS119/group_wi26_false_recall/analysis/../data/raw_data/p24767oe8gg_1772139666227.csv
NA,1272,html-keyboard-response,64,2.0.0,506738,p24767oe8gg,<h1>Couch</h1>,n,speed_game,Couch,NA,NA,NA,s,FALSE,/Users/martincz/GitHub/COGS119/group_wi26_false_recall/analysis/../data/raw_data/p24767oe8gg_1772139666227.csv
NA,null,html-keyboard-response,65,2.0.0,507540,p24767oe8gg,<h2 style='color:red;'>Wrong </h2>,null,NA,NA,NA,NA,NA,NA,NA,/Users/martincz/GitHub/COGS119/group_wi26_false_recall/analysis/../data/raw_data/p24767oe8gg_1772139666227.csv
NA,1143,html-keyboard-response,66,2.0.0,508685,p24767oe8gg,<h1>Hill</h1>,s,speed_game,Hill,NA,NA,NA,s,TRUE,/Users/martincz/GitHub/COGS119/group_wi26_false_recall/analysis/../data/raw_data/p24767oe8gg_1772139666227.csv
NA,null,html-keyboard-response,67,2.0.0,509488,p24767oe8gg,<h2 style='color:green;'>Correct! </h2>,null,NA,NA,NA,NA,NA,NA,NA,/Users/martincz/GitHub/COGS119/group_wi26_false_recall/analysis/../data/raw_data/p24767oe8gg_1772139666227.csv
NA,700,html-keyboard-response,68,2.0.0,510190,p24767oe8gg,<h1>Peak</h1>,s,speed_game,Peak,NA,NA,NA,s,TRUE,/Users/martincz/GitHub/COGS119/group_wi26_false_recall/analysis/../data/raw_data/p24767oe8gg_1772139666227.csv
NA,null,html-keyboard-response,69,2.0.0,510993,p24767oe8gg,<h2 style='color:green;'>Correct! </h2>,null,NA,NA,NA,NA,NA,NA,NA,/Users/martincz/GitHub/COGS119/group_wi26_false_recall/analysis/../data/raw_data/p24767oe8gg_1772139666227.csv
NA,812,html-keyboard-response,70,2.0.0,511807,p24767oe8gg,<h1>Table</h1>,s,speed_game,Table,NA,NA,NA,s,TRUE,/Users/martincz/GitHub/COGS119/group_wi26_false_recall/analysis/../data/raw_data/p24767oe8gg_1772139666227.csv
NA,null,html-keyboard-response,71,2.0.0,512609,p24767oe8gg,<h2 style='color:green;'>Correct! </h2>,null,NA,NA,NA,NA,NA,NA,NA,/Users/martincz/GitHub/COGS119/group_wi26_false_recall/analysis/../data/raw_data/p24767oe8gg_1772139666227.csv
NA,1168,html-keyboard-response,72,2.0.0,513779,p24767oe8gg,<h1>Tired</h1>,n,speed_game,Tired,NA,NA,NA,s,FALSE,/Users/martincz/GitHub/COGS119/group_wi26_false_recall/analysis/../data/raw_data/p24767oe8gg_1772139666227.csv
NA,null,html-keyboard-response,73,2.0.0,514584,p24767oe8gg,<h2 style='color:red;'>Wrong </h2>,null,NA,NA,NA,NA,NA,NA,NA,/Users/martincz/GitHub/COGS119/group_wi26_false_recall/analysis/../data/raw_data/p24767oe8gg_1772139666227.csv
NA,800,html-keyboard-response,74,2.0.0,515386,p24767oe8gg,<h1>Smooth</h1>,n,speed_game,Smooth,NA,NA,NA,s,FALSE,/Users/martincz/GitHub/COGS119/group_wi26_false_recall/analysis/../data/raw_data/p24767oe8gg_1772139666227.csv
NA,null,html-keyboard-response,75,2.0.0,516188,p24767oe8gg,<h2 style='color:red;'>Wrong </h2>,null,NA,NA,NA,NA,NA,NA,NA,/Users/martincz/GitHub/COGS119/group_wi26_false_recall/analysis/../data/raw_data/p24767oe8gg_1772139666227.csv
NA,690,html-keyboard-response,76,2.0.0,516880,p24767oe8gg,<h1>Thread</h1>,s,speed_game,Thread,NA,NA,NA,s,TRUE,/Users/martincz/GitHub/COGS119/group_wi26_false_recall/analysis/../data/raw_data/p24767oe8gg_1772139666227.csv
NA,null,html-keyboard-response,77,2.0.0,517683,p24767oe8gg,<h2 style='color:green;'>Correct! </h2>,null,NA,NA,NA,NA,NA,NA,NA,/Users/martincz/GitHub/COGS119/group_wi26_false_recall/analysis/../data/raw_data/p24767oe8gg_1772139666227.csv
NA,731,html-keyboard-response,78,2.0.0,518416,p24767oe8gg,<h1>Click N</h1>,n,speed_attention_check,NA,NA,NA,NA,NA,TRUE,/Users/martincz/GitHub/COGS119/group_wi26_false_recall/analysis/../data/raw_data/p24767oe8gg_1772139666227.csv
NA,1049,html-keyboard-response,79,2.0.0,519466,p24767oe8gg,<h1>Sweet</h1>,s,speed_game,Sweet,NA,NA,NA,n,FALSE,/Users/martincz/GitHub/COGS119/group_wi26_false_recall/analysis/../data/raw_data/p24767oe8gg_1772139666227.csv
NA,null,html-keyboard-response,80,2.0.0,520269,p24767oe8gg,<h2 style='color:red;'>Wrong </h2>,null,NA,NA,NA,NA,NA,NA,NA,/Users/martincz/GitHub/COGS119/group_wi26_false_recall/analysis/../data/raw_data/p24767oe8gg_1772139666227.csv
NA,1117,html-keyboard-response,81,2.0.0,521388,p24767oe8gg,<h1>Sugar</h1>,n,speed_game,Sugar,NA,NA,NA,s,FALSE,/Users/martincz/GitHub/COGS119/group_wi26_false_recall/analysis/../data/raw_data/p24767oe8gg_1772139666227.csv
NA,null,html-keyboard-response,82,2.0.0,522191,p24767oe8gg,<h2 style='color:red;'>Wrong </h2>,null,NA,NA,NA,NA,NA,NA,NA,/Users/martincz/GitHub/COGS119/group_wi26_false_recall/analysis/../data/raw_data/p24767oe8gg_1772139666227.csv
NA,718,html-keyboard-response,83,2.0.0,522911,p24767oe8gg,<h1>Sour</h1>,s,speed_game,Sour,NA,NA,NA,s,TRUE,/Users/martincz/GitHub/COGS119/group_wi26_false_recall/analysis/../data/raw_data/p24767oe8gg_1772139666227.csv
NA,null,html-keyboard-response,84,2.0.0,523714,p24767oe8gg,<h2 style='color:green;'>Correct! </h2>,null,NA,NA,NA,NA,NA,NA,NA,/Users/martincz/GitHub/COGS119/group_wi26_false_recall/analysis/../data/raw_data/p24767oe8gg_1772139666227.csv
NA,545,html-keyboard-response,85,2.0.0,524261,p24767oe8gg,<h1>Chair</h1>,s,speed_game,Chair,NA,NA,NA,n,FALSE,/Users/martincz/GitHub/COGS119/group_wi26_false_recall/analysis/../data/raw_data/p24767oe8gg_1772139666227.csv
NA,null,html-keyboard-response,86,2.0.0,525064,p24767oe8gg,<h2 style='color:red;'>Wrong </h2>,null,NA,NA,NA,NA,NA,NA,NA,/Users/martincz/GitHub/COGS119/group_wi26_false_recall/analysis/../data/raw_data/p24767oe8gg_1772139666227.csv
NA,790,html-keyboard-response,87,2.0.0,525857,p24767oe8gg,<h1>Touch</h1>,n,speed_game,Touch,NA,NA,NA,s,FALSE,/Users/martincz/GitHub/COGS119/group_wi26_false_recall/analysis/../data/raw_data/p24767oe8gg_1772139666227.csv
NA,null,html-keyboard-response,88,2.0.0,526660,p24767oe8gg,<h2 style='color:red;'>Wrong </h2>,null,NA,NA,NA,NA,NA,NA,NA,/Users/martincz/GitHub/COGS119/group_wi26_false_recall/analysis/../data/raw_data/p24767oe8gg_1772139666227.csv
NA,565,html-keyboard-response,89,2.0.0,527227,p24767oe8gg,<h1>Pin</h1>,s,speed_game,Pin,NA,NA,NA,s,TRUE,/Users/martincz/GitHub/COGS119/group_wi26_false_recall/analysis/../data/raw_data/p24767oe8gg_1772139666227.csv
NA,null,html-keyboard-response,90,2.0.0,528029,p24767oe8gg,<h2 style='color:green;'>Correct! </h2>,null,NA,NA,NA,NA,NA,NA,NA,/Users/martincz/GitHub/COGS119/group_wi26_false_recall/analysis/../data/raw_data/p24767oe8gg_1772139666227.csv
NA,581,html-keyboard-response,91,2.0.0,528612,p24767oe8gg,<h1>Bed</h1>,s,speed_game,Bed,NA,NA,NA,s,TRUE,/Users/martincz/GitHub/COGS119/group_wi26_false_recall/analysis/../data/raw_data/p24767oe8gg_1772139666227.csv
NA,null,html-keyboard-response,92,2.0.0,529414,p24767oe8gg,<h2 style='color:green;'>Correct! </h2>,null,NA,NA,NA,NA,NA,NA,NA,/Users/martincz/GitHub/COGS119/group_wi26_false_recall/analysis/../data/raw_data/p24767oe8gg_1772139666227.csv
NA,730,html-keyboard-response,93,2.0.0,530145,p24767oe8gg,<h1>Rough</h1>,s,speed_game,Rough,NA,NA,NA,n,FALSE,/Users/martincz/GitHub/COGS119/group_wi26_false_recall/analysis/../data/raw_data/p24767oe8gg_1772139666227.csv
NA,null,html-keyboard-response,94,2.0.0,530947,p24767oe8gg,<h2 style='color:red;'>Wrong </h2>,null,NA,NA,NA,NA,NA,NA,NA,/Users/martincz/GitHub/COGS119/group_wi26_false_recall/analysis/../data/raw_data/p24767oe8gg_1772139666227.csv
NA,848,html-keyboard-response,95,2.0.0,531798,p24767oe8gg,<h1>Sleep</h1>,n,speed_game,Sleep,NA,NA,NA,n,TRUE,/Users/martincz/GitHub/COGS119/group_wi26_false_recall/analysis/../data/raw_data/p24767oe8gg_1772139666227.csv
NA,null,html-keyboard-response,96,2.0.0,532600,p24767oe8gg,<h2 style='color:green;'>Correct! </h2>,null,NA,NA,NA,NA,NA,NA,NA,/Users/martincz/GitHub/COGS119/group_wi26_false_recall/analysis/../data/raw_data/p24767oe8gg_1772139666227.csv
NA,658,html-keyboard-response,97,2.0.0,533259,p24767oe8gg,<h1>Needle</h1>,s,speed_game,Needle,NA,NA,NA,n,FALSE,/Users/martincz/GitHub/COGS119/group_wi26_false_recall/analysis/../data/raw_data/p24767oe8gg_1772139666227.csv
NA,null,html-keyboard-response,98,2.0.0,534061,p24767oe8gg,<h2 style='color:red;'>Wrong </h2>,null,NA,NA,NA,NA,NA,NA,NA,/Users/martincz/GitHub/COGS119/group_wi26_false_recall/analysis/../data/raw_data/p24767oe8gg_1772139666227.csv
NA,2227,html-keyboard-response,99,2.0.0,536290,p24767oe8gg,"
      <h2>Game Results</h2>
      <p>Accuracy: 50%</p>
      <p>Average RT: 851 ms</p>
      <p>Press any key to continue.</p>
",NA,NA,NA,NA,NA,NA,NA,NA,/Users/martincz/GitHub/COGS119/group_wi26_false_recall/analysis/../data/raw_data/p24767oe8gg_1772139666227.csv
NA,37357,survey-text,100,2.0.0,573716,p24767oe8gg,NA,"{""Q0"":""Well made"",""Q1"":""My brain felt jumbled, like I couldn't remember everything"",""Q2"":""easy"",""Q3"":""No"",""Q4"":""N/A""}",NA,NA,NA,NA,NA,NA,NA,/Users/martincz/GitHub/COGS119/group_wi26_false_recall/analysis/../data/raw_data/p24767oe8gg_1772139666227.csv
TRUE,1573,fullscreen,0,2.1.0,2598,p2kcua5fpkl,NA,NA,NA,NA,NA,NA,NA,NA,NA,/Users/martincz/GitHub/COGS119/group_wi26_false_recall/analysis/../data/raw_data/p2kcua5fpkl_1772140954458.csv
NA,2519,html-keyboard-response,1,2.0.0,5120,p2kcua5fpkl,Welcome to the False Recall experiment. <p>Press any key to begin.</p>,NA,NA,NA,NA,NA,NA,NA,NA,/Users/martincz/GitHub/COGS119/group_wi26_false_recall/analysis/../data/raw_data/p2kcua5fpkl_1772140954458.csv
