rt,trial_type,trial_index,trial_number,time_elapsed,random_id,stimulus,response,task,word,condition,list,question_order,correct_answer,correct,file_name,participant_id,stimulus_list,word_1,word_2,word_3,word_4,word_5,word_6,word_7,word_8,word_9,word_10,word_11,word_12,word_13,word_14,word_15,likert_rating,experiment_about,feel_while_completing,subjective_task_difficulty,technical_issues,feedback,participant_is_group_member
13658,survey-text,5,1,1027866,p05ywlxguyt,NA,"{""Q0"":""chair"",""Q1"":"""",""Q2"":"""",""Q3"":"""",""Q4"":"""",""Q5"":"""",""Q6"":"""",""Q7"":"""",""Q8"":"""",""Q9"":"""",""Q10"":"""",""Q11"":"""",""Q12"":"""",""Q13"":"""",""Q14"":""""}",free_recall,NA,NA,NA,NA,NA,NA,/Users/martincz/GitHub/COGS119/group_wi26_false_recall/analysis/../data/raw_data/p05ywlxguyt_1772176624982.csv,seal,stimuli/Cogs 119 List 1.wav,chair,,,,,,,,,,,,,,,NA,Memory,Confused on how bad my memory was,Moderately challenging,Nope,Nope,FALSE
62763,survey-text,7,2,1119267,p05ywlxguyt,NA,"{""Q0"":""smooth"",""Q1"":""sand"",""Q2"":""gravel"",""Q3"":""bumpy"",""Q4"":"""",""Q5"":"""",""Q6"":"""",""Q7"":"""",""Q8"":"""",""Q9"":"""",""Q10"":"""",""Q11"":"""",""Q12"":"""",""Q13"":"""",""Q14"":""""}",free_recall,NA,NA,NA,NA,NA,NA,/Users/martincz/GitHub/COGS119/group_wi26_false_recall/analysis/../data/raw_data/p05ywlxguyt_1772176624982.csv,seal,stimuli/Cogs 119 List 4.wav,smooth,sand,gravel,bumpy,,,,,,,,,,,,NA,Memory,Confused on how bad my memory was,Moderately challenging,Nope,Nope,FALSE
17466,survey-text,9,3,1164016,p05ywlxguyt,NA,"{""Q0"":""knitting"",""Q1"":""cloth"",""Q2"":""nimble"",""Q3"":""texture"",""Q4"":""wool"",""Q5"":"""",""Q6"":"""",""Q7"":"""",""Q8"":"""",""Q9"":"""",""Q10"":"""",""Q11"":"""",""Q12"":"""",""Q13"":"""",""Q14"":""""}",free_recall,NA,NA,NA,NA,NA,NA,/Users/martincz/GitHub/COGS119/group_wi26_false_recall/analysis/../data/raw_data/p05ywlxguyt_1772176624982.csv,seal,stimuli/Cogs 119 List 3.wav,knitting,cloth,nimble,texture,wool,,,,,,,,,,,NA,Memory,Confused on how bad my memory was,Moderately challenging,Nope,Nope,FALSE
15402,survey-text,11,4,1207440,p05ywlxguyt,NA,"{""Q0"":""top"",""Q1"":""peak"",""Q2"":""mountain"",""Q3"":""speak"",""Q4"":""pain"",""Q5"":"""",""Q6"":"""",""Q7"":"""",""Q8"":"""",""Q9"":"""",""Q10"":"""",""Q11"":"""",""Q12"":"""",""Q13"":"""",""Q14"":""""}",free_recall,NA,NA,NA,NA,NA,NA,/Users/martincz/GitHub/COGS119/group_wi26_false_recall/analysis/../data/raw_data/p05ywlxguyt_1772176624982.csv,seal,stimuli/Cogs 119 List 2.wav,top,peak,mountain,speak,pain,,,,,,,,,,,NA,Memory,Confused on how bad my memory was,Moderately challenging,Nope,Nope,FALSE
25300,survey-text,13,5,1260631,p05ywlxguyt,NA,"{""Q0"":""bed"",""Q1"":""nap"",""Q2"":""rest"",""Q3"":""dream"",""Q4"":""wake"",""Q5"":""blanket"",""Q6"":""drowsy"",""Q7"":""peace"",""Q8"":"""",""Q9"":"""",""Q10"":"""",""Q11"":"""",""Q12"":"""",""Q13"":"""",""Q14"":""""}",free_recall,NA,NA,NA,NA,NA,NA,/Users/martincz/GitHub/COGS119/group_wi26_false_recall/analysis/../data/raw_data/p05ywlxguyt_1772176624982.csv,seal,stimuli/Cogs 119 List 5.wav,bed,nap,rest,dream,wake,blanket,drowsy,peace,,,,,,,,NA,Memory,Confused on how bad my memory was,Moderately challenging,Nope,Nope,FALSE
11166,survey-text,15,6,1298944,p05ywlxguyt,NA,"{""Q0"":""sour"",""Q1"":""sweet"",""Q2"":""candy"",""Q3"":""tart"",""Q4"":""cake"",""Q5"":"""",""Q6"":"""",""Q7"":"""",""Q8"":"""",""Q9"":"""",""Q10"":"""",""Q11"":"""",""Q12"":"""",""Q13"":"""",""Q14"":""""}",free_recall,NA,NA,NA,NA,NA,NA,/Users/martincz/GitHub/COGS119/group_wi26_false_recall/analysis/../data/raw_data/p05ywlxguyt_1772176624982.csv,seal,stimuli/Cogs 119 List 6.wav,sour,sweet,candy,tart,cake,,,,,,,,,,,NA,Memory,Confused on how bad my memory was,Moderately challenging,Nope,Nope,FALSE
3935,survey-likert,17,7,1312399,p05ywlxguyt,NA,"{""Q0"":2}",recognition,Couch,studied,1,[0],NA,NA,/Users/martincz/GitHub/COGS119/group_wi26_false_recall/analysis/../data/raw_data/p05ywlxguyt_1772176624982.csv,seal,NA,NA,NA,NA,NA,NA,NA,NA,NA,NA,NA,NA,NA,NA,NA,NA,2,Memory,Confused on how bad my memory was,Moderately challenging,Nope,Nope,FALSE
2613,survey-likert,18,8,1315015,p05ywlxguyt,NA,"{""Q0"":2}",recognition,Shoe,unrelated,1,[0],NA,NA,/Users/martincz/GitHub/COGS119/group_wi26_false_recall/analysis/../data/raw_data/p05ywlxguyt_1772176624982.csv,seal,NA,NA,NA,NA,NA,NA,NA,NA,NA,NA,NA,NA,NA,NA,NA,NA,2,Memory,Confused on how bad my memory was,Moderately challenging,Nope,Nope,FALSE
3313,survey-likert,19,9,1318330,p05ywlxguyt,NA,"{""Q0"":1}",recognition,Ball,unrelated,1,[0],NA,NA,/Users/martincz/GitHub/COGS119/group_wi26_false_recall/analysis/../data/raw_data/p05ywlxguyt_1772176624982.csv,seal,NA,NA,NA,NA,NA,NA,NA,NA,NA,NA,NA,NA,NA,NA,NA,NA,1,Memory,Confused on how bad my memory was,Moderately challenging,Nope,Nope,FALSE
2433,survey-likert,20,10,1320764,p05ywlxguyt,NA,"{""Q0"":3}",recognition,Chair,critical,1,[0],NA,NA,/Users/martincz/GitHub/COGS119/group_wi26_false_recall/analysis/../data/raw_data/p05ywlxguyt_1772176624982.csv,seal,NA,NA,NA,NA,NA,NA,NA,NA,NA,NA,NA,NA,NA,NA,NA,NA,3,Memory,Confused on how bad my memory was,Moderately challenging,Nope,Nope,FALSE
1614,survey-likert,21,11,1322381,p05ywlxguyt,NA,"{""Q0"":3}",recognition,Table,studied,1,[0],NA,NA,/Users/martincz/GitHub/COGS119/group_wi26_false_recall/analysis/../data/raw_data/p05ywlxguyt_1772176624982.csv,seal,NA,NA,NA,NA,NA,NA,NA,NA,NA,NA,NA,NA,NA,NA,NA,NA,3,Memory,Confused on how bad my memory was,Moderately challenging,Nope,Nope,FALSE
1897,survey-likert,22,12,1324281,p05ywlxguyt,NA,"{""Q0"":2}",recognition,Floor,weakly related,1,[0],NA,NA,/Users/martincz/GitHub/COGS119/group_wi26_false_recall/analysis/../data/raw_data/p05ywlxguyt_1772176624982.csv,seal,NA,NA,NA,NA,NA,NA,NA,NA,NA,NA,NA,NA,NA,NA,NA,NA,2,Memory,Confused on how bad my memory was,Moderately challenging,Nope,Nope,FALSE
2164,survey-likert,23,13,1326447,p05ywlxguyt,NA,"{""Q0"":3}",recognition,Cushion,weakly related,1,[0],NA,NA,/Users/martincz/GitHub/COGS119/group_wi26_false_recall/analysis/../data/raw_data/p05ywlxguyt_1772176624982.csv,seal,NA,NA,NA,NA,NA,NA,NA,NA,NA,NA,NA,NA,NA,NA,NA,NA,3,Memory,Confused on how bad my memory was,Moderately challenging,Nope,Nope,FALSE
2465,survey-likert,24,14,1328915,p05ywlxguyt,NA,"{""Q0"":1}",recognition,Chalk,weakly related,4,[0],NA,NA,/Users/martincz/GitHub/COGS119/group_wi26_false_recall/analysis/../data/raw_data/p05ywlxguyt_1772176624982.csv,seal,NA,NA,NA,NA,NA,NA,NA,NA,NA,NA,NA,NA,NA,NA,NA,NA,1,Memory,Confused on how bad my memory was,Moderately challenging,Nope,Nope,FALSE
1980,survey-likert,25,15,1330897,p05ywlxguyt,NA,"{""Q0"":3}",recognition,Smooth,studied,4,[0],NA,NA,/Users/martincz/GitHub/COGS119/group_wi26_false_recall/analysis/../data/raw_data/p05ywlxguyt_1772176624982.csv,seal,NA,NA,NA,NA,NA,NA,NA,NA,NA,NA,NA,NA,NA,NA,NA,NA,3,Memory,Confused on how bad my memory was,Moderately challenging,Nope,Nope,FALSE
2115,survey-likert,26,16,1333014,p05ywlxguyt,NA,"{""Q0"":2}",recognition,Spike,weakly related,4,[0],NA,NA,/Users/martincz/GitHub/COGS119/group_wi26_false_recall/analysis/../data/raw_data/p05ywlxguyt_1772176624982.csv,seal,NA,NA,NA,NA,NA,NA,NA,NA,NA,NA,NA,NA,NA,NA,NA,NA,2,Memory,Confused on how bad my memory was,Moderately challenging,Nope,Nope,FALSE
2747,survey-likert,27,17,1335764,p05ywlxguyt,NA,"{""Q0"":0}",recognition,Project,unrelated,4,[0],NA,NA,/Users/martincz/GitHub/COGS119/group_wi26_false_recall/analysis/../data/raw_data/p05ywlxguyt_1772176624982.csv,seal,NA,NA,NA,NA,NA,NA,NA,NA,NA,NA,NA,NA,NA,NA,NA,NA,0,Memory,Confused on how bad my memory was,Moderately challenging,Nope,Nope,FALSE
2732,survey-likert,28,18,1338497,p05ywlxguyt,NA,"{""Q0"":3}",recognition,Rough,critical,4,[0],NA,NA,/Users/martincz/GitHub/COGS119/group_wi26_false_recall/analysis/../data/raw_data/p05ywlxguyt_1772176624982.csv,seal,NA,NA,NA,NA,NA,NA,NA,NA,NA,NA,NA,NA,NA,NA,NA,NA,3,Memory,Confused on how bad my memory was,Moderately challenging,Nope,Nope,FALSE
2015,survey-likert,29,19,1340514,p05ywlxguyt,NA,"{""Q0"":1}",recognition,Key,unrelated,4,[0],NA,NA,/Users/martincz/GitHub/COGS119/group_wi26_false_recall/analysis/../data/raw_data/p05ywlxguyt_1772176624982.csv,seal,NA,NA,NA,NA,NA,NA,NA,NA,NA,NA,NA,NA,NA,NA,NA,NA,1,Memory,Confused on how bad my memory was,Moderately challenging,Nope,Nope,FALSE
1614,survey-likert,30,20,1342131,p05ywlxguyt,NA,"{""Q0"":2}",recognition,Touch,studied,4,[0],NA,NA,/Users/martincz/GitHub/COGS119/group_wi26_false_recall/analysis/../data/raw_data/p05ywlxguyt_1772176624982.csv,seal,NA,NA,NA,NA,NA,NA,NA,NA,NA,NA,NA,NA,NA,NA,NA,NA,2,Memory,Confused on how bad my memory was,Moderately challenging,Nope,Nope,FALSE
2348,survey-likert,31,21,1344481,p05ywlxguyt,NA,"{""Q0"":0}",recognition,Click: Definitely New,attention_check,none,[0],NA,NA,/Users/martincz/GitHub/COGS119/group_wi26_false_recall/analysis/../data/raw_data/p05ywlxguyt_1772176624982.csv,seal,NA,NA,NA,NA,NA,NA,NA,NA,NA,NA,NA,NA,NA,NA,NA,NA,0,Memory,Confused on how bad my memory was,Moderately challenging,Nope,Nope,FALSE
82747,survey-likert,32,22,1427228,p05ywlxguyt,NA,"{""Q0"":3}",recognition,Thread,studied,3,[0],NA,NA,/Users/martincz/GitHub/COGS119/group_wi26_false_recall/analysis/../data/raw_data/p05ywlxguyt_1772176624982.csv,seal,NA,NA,NA,NA,NA,NA,NA,NA,NA,NA,NA,NA,NA,NA,NA,NA,3,Memory,Confused on how bad my memory was,Moderately challenging,Nope,Nope,FALSE
2467,survey-likert,33,23,1429697,p05ywlxguyt,NA,"{""Q0"":2}",recognition,Needle,critical,3,[0],NA,NA,/Users/martincz/GitHub/COGS119/group_wi26_false_recall/analysis/../data/raw_data/p05ywlxguyt_1772176624982.csv,seal,NA,NA,NA,NA,NA,NA,NA,NA,NA,NA,NA,NA,NA,NA,NA,NA,2,Memory,Confused on how bad my memory was,Moderately challenging,Nope,Nope,FALSE
2697,survey-likert,34,24,1432396,p05ywlxguyt,NA,"{""Q0"":0}",recognition,Stop,unrelated,3,[0],NA,NA,/Users/martincz/GitHub/COGS119/group_wi26_false_recall/analysis/../data/raw_data/p05ywlxguyt_1772176624982.csv,seal,NA,NA,NA,NA,NA,NA,NA,NA,NA,NA,NA,NA,NA,NA,NA,NA,0,Memory,Confused on how bad my memory was,Moderately challenging,Nope,Nope,FALSE
1764,survey-likert,35,25,1434163,p05ywlxguyt,NA,"{""Q0"":2}",recognition,Stitch,weakly related,3,[0],NA,NA,/Users/martincz/GitHub/COGS119/group_wi26_false_recall/analysis/../data/raw_data/p05ywlxguyt_1772176624982.csv,seal,NA,NA,NA,NA,NA,NA,NA,NA,NA,NA,NA,NA,NA,NA,NA,NA,2,Memory,Confused on how bad my memory was,Moderately challenging,Nope,Nope,FALSE
1699,survey-likert,36,26,1435864,p05ywlxguyt,NA,"{""Q0"":2}",recognition,Pin,studied,3,[0],NA,NA,/Users/martincz/GitHub/COGS119/group_wi26_false_recall/analysis/../data/raw_data/p05ywlxguyt_1772176624982.csv,seal,NA,NA,NA,NA,NA,NA,NA,NA,NA,NA,NA,NA,NA,NA,NA,NA,2,Memory,Confused on how bad my memory was,Moderately challenging,Nope,Nope,FALSE
1780,survey-likert,37,27,1437647,p05ywlxguyt,NA,"{""Q0"":1}",recognition,Fast,unrelated,3,[0],NA,NA,/Users/martincz/GitHub/COGS119/group_wi26_false_recall/analysis/../data/raw_data/p05ywlxguyt_1772176624982.csv,seal,NA,NA,NA,NA,NA,NA,NA,NA,NA,NA,NA,NA,NA,NA,NA,NA,1,Memory,Confused on how bad my memory was,Moderately challenging,Nope,Nope,FALSE
41948,survey-likert,38,28,1479596,p05ywlxguyt,NA,"{""Q0"":0}",recognition,Splinter,weakly related,3,[0],NA,NA,/Users/martincz/GitHub/COGS119/group_wi26_false_recall/analysis/../data/raw_data/p05ywlxguyt_1772176624982.csv,seal,NA,NA,NA,NA,NA,NA,NA,NA,NA,NA,NA,NA,NA,NA,NA,NA,0,Memory,Confused on how bad my memory was,Moderately challenging,Nope,Nope,FALSE
1814,survey-likert,39,29,1481413,p05ywlxguyt,NA,"{""Q0"":3}",recognition,Peak,studied,2,[0],NA,NA,/Users/martincz/GitHub/COGS119/group_wi26_false_recall/analysis/../data/raw_data/p05ywlxguyt_1772176624982.csv,seal,NA,NA,NA,NA,NA,NA,NA,NA,NA,NA,NA,NA,NA,NA,NA,NA,3,Memory,Confused on how bad my memory was,Moderately challenging,Nope,Nope,FALSE
1647,survey-likert,40,30,1483063,p05ywlxguyt,NA,"{""Q0"":1}",recognition,Draw,unrelated,2,[0],NA,NA,/Users/martincz/GitHub/COGS119/group_wi26_false_recall/analysis/../data/raw_data/p05ywlxguyt_1772176624982.csv,seal,NA,NA,NA,NA,NA,NA,NA,NA,NA,NA,NA,NA,NA,NA,NA,NA,1,Memory,Confused on how bad my memory was,Moderately challenging,Nope,Nope,FALSE
1765,survey-likert,41,31,1484830,p05ywlxguyt,NA,"{""Q0"":3}",recognition,Mountain,critical,2,[0],NA,NA,/Users/martincz/GitHub/COGS119/group_wi26_false_recall/analysis/../data/raw_data/p05ywlxguyt_1772176624982.csv,seal,NA,NA,NA,NA,NA,NA,NA,NA,NA,NA,NA,NA,NA,NA,NA,NA,3,Memory,Confused on how bad my memory was,Moderately challenging,Nope,Nope,FALSE
1647,survey-likert,42,32,1486479,p05ywlxguyt,NA,"{""Q0"":2}",recognition,Hill,studied,2,[0],NA,NA,/Users/martincz/GitHub/COGS119/group_wi26_false_recall/analysis/../data/raw_data/p05ywlxguyt_1772176624982.csv,seal,NA,NA,NA,NA,NA,NA,NA,NA,NA,NA,NA,NA,NA,NA,NA,NA,2,Memory,Confused on how bad my memory was,Moderately challenging,Nope,Nope,FALSE
1814,survey-likert,43,33,1488295,p05ywlxguyt,NA,"{""Q0"":1}",recognition,Snow,weakly related,2,[0],NA,NA,/Users/martincz/GitHub/COGS119/group_wi26_false_recall/analysis/../data/raw_data/p05ywlxguyt_1772176624982.csv,seal,NA,NA,NA,NA,NA,NA,NA,NA,NA,NA,NA,NA,NA,NA,NA,NA,1,Memory,Confused on how bad my memory was,Moderately challenging,Nope,Nope,FALSE
3033,survey-likert,44,34,1491329,p05ywlxguyt,NA,"{""Q0"":2}",recognition,Hike,weakly related,2,[0],NA,NA,/Users/martincz/GitHub/COGS119/group_wi26_false_recall/analysis/../data/raw_data/p05ywlxguyt_1772176624982.csv,seal,NA,NA,NA,NA,NA,NA,NA,NA,NA,NA,NA,NA,NA,NA,NA,NA,2,Memory,Confused on how bad my memory was,Moderately challenging,Nope,Nope,FALSE
1449,survey-likert,45,35,1492780,p05ywlxguyt,NA,"{""Q0"":1}",recognition,Car,unrelated,2,[0],NA,NA,/Users/martincz/GitHub/COGS119/group_wi26_false_recall/analysis/../data/raw_data/p05ywlxguyt_1772176624982.csv,seal,NA,NA,NA,NA,NA,NA,NA,NA,NA,NA,NA,NA,NA,NA,NA,NA,1,Memory,Confused on how bad my memory was,Moderately challenging,Nope,Nope,FALSE
1680,survey-likert,46,36,1494462,p05ywlxguyt,NA,"{""Q0"":3}",recognition,Sleep,critical,5,[0],NA,NA,/Users/martincz/GitHub/COGS119/group_wi26_false_recall/analysis/../data/raw_data/p05ywlxguyt_1772176624982.csv,seal,NA,NA,NA,NA,NA,NA,NA,NA,NA,NA,NA,NA,NA,NA,NA,NA,3,Memory,Confused on how bad my memory was,Moderately challenging,Nope,Nope,FALSE
2781,survey-likert,47,37,1497246,p05ywlxguyt,NA,"{""Q0"":0}",recognition,Fish,unrelated,5,[0],NA,NA,/Users/martincz/GitHub/COGS119/group_wi26_false_recall/analysis/../data/raw_data/p05ywlxguyt_1772176624982.csv,seal,NA,NA,NA,NA,NA,NA,NA,NA,NA,NA,NA,NA,NA,NA,NA,NA,0,Memory,Confused on how bad my memory was,Moderately challenging,Nope,Nope,FALSE
1765,survey-likert,48,38,1499013,p05ywlxguyt,NA,"{""Q0"":3}",recognition,Calm,weakly related,5,[0],NA,NA,/Users/martincz/GitHub/COGS119/group_wi26_false_recall/analysis/../data/raw_data/p05ywlxguyt_1772176624982.csv,seal,NA,NA,NA,NA,NA,NA,NA,NA,NA,NA,NA,NA,NA,NA,NA,NA,3,Memory,Confused on how bad my memory was,Moderately challenging,Nope,Nope,FALSE
1598,survey-likert,49,39,1500613,p05ywlxguyt,NA,"{""Q0"":2}",recognition,Coma,weakly related,5,[0],NA,NA,/Users/martincz/GitHub/COGS119/group_wi26_false_recall/analysis/../data/raw_data/p05ywlxguyt_1772176624982.csv,seal,NA,NA,NA,NA,NA,NA,NA,NA,NA,NA,NA,NA,NA,NA,NA,NA,2,Memory,Confused on how bad my memory was,Moderately challenging,Nope,Nope,FALSE
1581,survey-likert,50,40,1502196,p05ywlxguyt,NA,"{""Q0"":3}",recognition,Bed,studied,5,[0],NA,NA,/Users/martincz/GitHub/COGS119/group_wi26_false_recall/analysis/../data/raw_data/p05ywlxguyt_1772176624982.csv,seal,NA,NA,NA,NA,NA,NA,NA,NA,NA,NA,NA,NA,NA,NA,NA,NA,3,Memory,Confused on how bad my memory was,Moderately challenging,Nope,Nope,FALSE
3631,survey-likert,51,41,1505830,p05ywlxguyt,NA,"{""Q0"":3}",recognition,Tired,studied,5,[0],NA,NA,/Users/martincz/GitHub/COGS119/group_wi26_false_recall/analysis/../data/raw_data/p05ywlxguyt_1772176624982.csv,seal,NA,NA,NA,NA,NA,NA,NA,NA,NA,NA,NA,NA,NA,NA,NA,NA,3,Memory,Confused on how bad my memory was,Moderately challenging,Nope,Nope,FALSE
1731,survey-likert,52,42,1507564,p05ywlxguyt,NA,"{""Q0"":1}",recognition,Chess,unrelated,5,[0],NA,NA,/Users/martincz/GitHub/COGS119/group_wi26_false_recall/analysis/../data/raw_data/p05ywlxguyt_1772176624982.csv,seal,NA,NA,NA,NA,NA,NA,NA,NA,NA,NA,NA,NA,NA,NA,NA,NA,1,Memory,Confused on how bad my memory was,Moderately challenging,Nope,Nope,FALSE
2097,survey-likert,53,43,1509663,p05ywlxguyt,NA,"{""Q0"":1}",recognition,Cherry,weakly related,6,[0],NA,NA,/Users/martincz/GitHub/COGS119/group_wi26_false_recall/analysis/../data/raw_data/p05ywlxguyt_1772176624982.csv,seal,NA,NA,NA,NA,NA,NA,NA,NA,NA,NA,NA,NA,NA,NA,NA,NA,1,Memory,Confused on how bad my memory was,Moderately challenging,Nope,Nope,FALSE
1964,survey-likert,54,44,1511630,p05ywlxguyt,NA,"{""Q0"":3}",recognition,Sour,studied,6,[0],NA,NA,/Users/martincz/GitHub/COGS119/group_wi26_false_recall/analysis/../data/raw_data/p05ywlxguyt_1772176624982.csv,seal,NA,NA,NA,NA,NA,NA,NA,NA,NA,NA,NA,NA,NA,NA,NA,NA,3,Memory,Confused on how bad my memory was,Moderately challenging,Nope,Nope,FALSE
1564,survey-likert,55,45,1513196,p05ywlxguyt,NA,"{""Q0"":3}",recognition,Sweet,critical,6,[0],NA,NA,/Users/martincz/GitHub/COGS119/group_wi26_false_recall/analysis/../data/raw_data/p05ywlxguyt_1772176624982.csv,seal,NA,NA,NA,NA,NA,NA,NA,NA,NA,NA,NA,NA,NA,NA,NA,NA,3,Memory,Confused on how bad my memory was,Moderately challenging,Nope,Nope,FALSE
2148,survey-likert,56,46,1515345,p05ywlxguyt,NA,"{""Q0"":2}",recognition,Door,unrelated,6,[0],NA,NA,/Users/martincz/GitHub/COGS119/group_wi26_false_recall/analysis/../data/raw_data/p05ywlxguyt_1772176624982.csv,seal,NA,NA,NA,NA,NA,NA,NA,NA,NA,NA,NA,NA,NA,NA,NA,NA,2,Memory,Confused on how bad my memory was,Moderately challenging,Nope,Nope,FALSE
2498,survey-likert,57,47,1517844,p05ywlxguyt,NA,"{""Q0"":2}",recognition,Salty,weakly related,6,[0],NA,NA,/Users/martincz/GitHub/COGS119/group_wi26_false_recall/analysis/../data/raw_data/p05ywlxguyt_1772176624982.csv,seal,NA,NA,NA,NA,NA,NA,NA,NA,NA,NA,NA,NA,NA,NA,NA,NA,2,Memory,Confused on how bad my memory was,Moderately challenging,Nope,Nope,FALSE
2134,survey-likert,58,48,1519980,p05ywlxguyt,NA,"{""Q0"":1}",recognition,Ghost,unrelated,6,[0],NA,NA,/Users/martincz/GitHub/COGS119/group_wi26_false_recall/analysis/../data/raw_data/p05ywlxguyt_1772176624982.csv,seal,NA,NA,NA,NA,NA,NA,NA,NA,NA,NA,NA,NA,NA,NA,NA,NA,1,Memory,Confused on how bad my memory was,Moderately challenging,Nope,Nope,FALSE
1930,survey-likert,59,49,1521912,p05ywlxguyt,NA,"{""Q0"":2}",recognition,Sugar,studied,6,[0],NA,NA,/Users/martincz/GitHub/COGS119/group_wi26_false_recall/analysis/../data/raw_data/p05ywlxguyt_1772176624982.csv,seal,NA,NA,NA,NA,NA,NA,NA,NA,NA,NA,NA,NA,NA,NA,NA,NA,2,Memory,Confused on how bad my memory was,Moderately challenging,Nope,Nope,FALSE
1039,html-keyboard-response,62,50,1539179,p05ywlxguyt,<h1>Table</h1>,s,speed_game,Table,NA,NA,NA,s,TRUE,/Users/martincz/GitHub/COGS119/group_wi26_false_recall/analysis/../data/raw_data/p05ywlxguyt_1772176624982.csv,seal,NA,NA,NA,NA,NA,NA,NA,NA,NA,NA,NA,NA,NA,NA,NA,NA,NA,Memory,Confused on how bad my memory was,Moderately challenging,Nope,Nope,FALSE
650,html-keyboard-response,64,51,1540633,p05ywlxguyt,<h1>Needle</h1>,s,speed_game,Needle,NA,NA,NA,n,FALSE,/Users/martincz/GitHub/COGS119/group_wi26_false_recall/analysis/../data/raw_data/p05ywlxguyt_1772176624982.csv,seal,NA,NA,NA,NA,NA,NA,NA,NA,NA,NA,NA,NA,NA,NA,NA,NA,NA,Memory,Confused on how bad my memory was,Moderately challenging,Nope,Nope,FALSE
1636,html-keyboard-response,66,52,1543074,p05ywlxguyt,<h1>Sweet</h1>,s,speed_game,Sweet,NA,NA,NA,n,FALSE,/Users/martincz/GitHub/COGS119/group_wi26_false_recall/analysis/../data/raw_data/p05ywlxguyt_1772176624982.csv,seal,NA,NA,NA,NA,NA,NA,NA,NA,NA,NA,NA,NA,NA,NA,NA,NA,NA,Memory,Confused on how bad my memory was,Moderately challenging,Nope,Nope,FALSE
633,html-keyboard-response,68,53,1544512,p05ywlxguyt,<h1>Mountain</h1>,s,speed_game,Mountain,NA,NA,NA,n,FALSE,/Users/martincz/GitHub/COGS119/group_wi26_false_recall/analysis/../data/raw_data/p05ywlxguyt_1772176624982.csv,seal,NA,NA,NA,NA,NA,NA,NA,NA,NA,NA,NA,NA,NA,NA,NA,NA,NA,Memory,Confused on how bad my memory was,Moderately challenging,Nope,Nope,FALSE
1448,html-keyboard-response,70,54,1546764,p05ywlxguyt,<h1>Pin</h1>,n,speed_game,Pin,NA,NA,NA,s,FALSE,/Users/martincz/GitHub/COGS119/group_wi26_false_recall/analysis/../data/raw_data/p05ywlxguyt_1772176624982.csv,seal,NA,NA,NA,NA,NA,NA,NA,NA,NA,NA,NA,NA,NA,NA,NA,NA,NA,Memory,Confused on how bad my memory was,Moderately challenging,Nope,Nope,FALSE
607,html-keyboard-response,72,55,1548175,p05ywlxguyt,<h1>Chair</h1>,s,speed_game,Chair,NA,NA,NA,n,FALSE,/Users/martincz/GitHub/COGS119/group_wi26_false_recall/analysis/../data/raw_data/p05ywlxguyt_1772176624982.csv,seal,NA,NA,NA,NA,NA,NA,NA,NA,NA,NA,NA,NA,NA,NA,NA,NA,NA,Memory,Confused on how bad my memory was,Moderately challenging,Nope,Nope,FALSE
709,html-keyboard-response,74,56,1549689,p05ywlxguyt,<h1>Peak</h1>,s,speed_game,Peak,NA,NA,NA,s,TRUE,/Users/martincz/GitHub/COGS119/group_wi26_false_recall/analysis/../data/raw_data/p05ywlxguyt_1772176624982.csv,seal,NA,NA,NA,NA,NA,NA,NA,NA,NA,NA,NA,NA,NA,NA,NA,NA,NA,Memory,Confused on how bad my memory was,Moderately challenging,Nope,Nope,FALSE
770,html-keyboard-response,76,57,1551263,p05ywlxguyt,<h1>Touch</h1>,n,speed_game,Touch,NA,NA,NA,s,FALSE,/Users/martincz/GitHub/COGS119/group_wi26_false_recall/analysis/../data/raw_data/p05ywlxguyt_1772176624982.csv,seal,NA,NA,NA,NA,NA,NA,NA,NA,NA,NA,NA,NA,NA,NA,NA,NA,NA,Memory,Confused on how bad my memory was,Moderately challenging,Nope,Nope,FALSE
714,html-keyboard-response,78,58,1552782,p05ywlxguyt,<h1>Tired</h1>,s,speed_game,Tired,NA,NA,NA,s,TRUE,/Users/martincz/GitHub/COGS119/group_wi26_false_recall/analysis/../data/raw_data/p05ywlxguyt_1772176624982.csv,seal,NA,NA,NA,NA,NA,NA,NA,NA,NA,NA,NA,NA,NA,NA,NA,NA,NA,Memory,Confused on how bad my memory was,Moderately challenging,Nope,Nope,FALSE
626,html-keyboard-response,80,59,1554212,p05ywlxguyt,<h1>Bed</h1>,s,speed_game,Bed,NA,NA,NA,s,TRUE,/Users/martincz/GitHub/COGS119/group_wi26_false_recall/analysis/../data/raw_data/p05ywlxguyt_1772176624982.csv,seal,NA,NA,NA,NA,NA,NA,NA,NA,NA,NA,NA,NA,NA,NA,NA,NA,NA,Memory,Confused on how bad my memory was,Moderately challenging,Nope,Nope,FALSE
593,html-keyboard-response,82,60,1555609,p05ywlxguyt,<h1>Click N</h1>,n,speed_attention_check,NA,NA,NA,NA,NA,TRUE,/Users/martincz/GitHub/COGS119/group_wi26_false_recall/analysis/../data/raw_data/p05ywlxguyt_1772176624982.csv,seal,NA,NA,NA,NA,NA,NA,NA,NA,NA,NA,NA,NA,NA,NA,NA,NA,NA,Memory,Confused on how bad my memory was,Moderately challenging,Nope,Nope,FALSE
1653,html-keyboard-response,83,61,1557263,p05ywlxguyt,<h1>Couch</h1>,s,speed_game,Couch,NA,NA,NA,s,TRUE,/Users/martincz/GitHub/COGS119/group_wi26_false_recall/analysis/../data/raw_data/p05ywlxguyt_1772176624982.csv,seal,NA,NA,NA,NA,NA,NA,NA,NA,NA,NA,NA,NA,NA,NA,NA,NA,NA,Memory,Confused on how bad my memory was,Moderately challenging,Nope,Nope,FALSE
851,html-keyboard-response,85,62,1558919,p05ywlxguyt,<h1>Smooth</h1>,s,speed_game,Smooth,NA,NA,NA,s,TRUE,/Users/martincz/GitHub/COGS119/group_wi26_false_recall/analysis/../data/raw_data/p05ywlxguyt_1772176624982.csv,seal,NA,NA,NA,NA,NA,NA,NA,NA,NA,NA,NA,NA,NA,NA,NA,NA,NA,Memory,Confused on how bad my memory was,Moderately challenging,Nope,Nope,FALSE
687,html-keyboard-response,87,63,1560410,p05ywlxguyt,<h1>Sleep</h1>,s,speed_game,Sleep,NA,NA,NA,n,FALSE,/Users/martincz/GitHub/COGS119/group_wi26_false_recall/analysis/../data/raw_data/p05ywlxguyt_1772176624982.csv,seal,NA,NA,NA,NA,NA,NA,NA,NA,NA,NA,NA,NA,NA,NA,NA,NA,NA,Memory,Confused on how bad my memory was,Moderately challenging,Nope,Nope,FALSE
702,html-keyboard-response,89,64,1561917,p05ywlxguyt,<h1>Sugar</h1>,n,speed_game,Sugar,NA,NA,NA,s,FALSE,/Users/martincz/GitHub/COGS119/group_wi26_false_recall/analysis/../data/raw_data/p05ywlxguyt_1772176624982.csv,seal,NA,NA,NA,NA,NA,NA,NA,NA,NA,NA,NA,NA,NA,NA,NA,NA,NA,Memory,Confused on how bad my memory was,Moderately challenging,Nope,Nope,FALSE
543,html-keyboard-response,91,65,1563263,p05ywlxguyt,<h1>Thread</h1>,s,speed_game,Thread,NA,NA,NA,s,TRUE,/Users/martincz/GitHub/COGS119/group_wi26_false_recall/analysis/../data/raw_data/p05ywlxguyt_1772176624982.csv,seal,NA,NA,NA,NA,NA,NA,NA,NA,NA,NA,NA,NA,NA,NA,NA,NA,NA,Memory,Confused on how bad my memory was,Moderately challenging,Nope,Nope,FALSE
594,html-keyboard-response,93,66,1564662,p05ywlxguyt,<h1>Sour</h1>,s,speed_game,Sour,NA,NA,NA,s,TRUE,/Users/martincz/GitHub/COGS119/group_wi26_false_recall/analysis/../data/raw_data/p05ywlxguyt_1772176624982.csv,seal,NA,NA,NA,NA,NA,NA,NA,NA,NA,NA,NA,NA,NA,NA,NA,NA,NA,Memory,Confused on how bad my memory was,Moderately challenging,Nope,Nope,FALSE
830,html-keyboard-response,95,67,1566296,p05ywlxguyt,<h1>Rough</h1>,s,speed_game,Rough,NA,NA,NA,n,FALSE,/Users/martincz/GitHub/COGS119/group_wi26_false_recall/analysis/../data/raw_data/p05ywlxguyt_1772176624982.csv,seal,NA,NA,NA,NA,NA,NA,NA,NA,NA,NA,NA,NA,NA,NA,NA,NA,NA,Memory,Confused on how bad my memory was,Moderately challenging,Nope,Nope,FALSE
791,html-keyboard-response,97,68,1567892,p05ywlxguyt,<h1>Hill</h1>,n,speed_game,Hill,NA,NA,NA,s,FALSE,/Users/martincz/GitHub/COGS119/group_wi26_false_recall/analysis/../data/raw_data/p05ywlxguyt_1772176624982.csv,seal,NA,NA,NA,NA,NA,NA,NA,NA,NA,NA,NA,NA,NA,NA,NA,NA,NA,Memory,Confused on how bad my memory was,Moderately challenging,Nope,Nope,FALSE
51461,survey-text,5,1,107859,p0unvuqxmsj,NA,"{""Q0"":""thorn"",""Q1"":""sewing"",""Q2"":""hurt"",""Q3"":""knitting"",""Q4"":""prick"",""Q5"":""thread"",""Q6"":""cloth"",""Q7"":""haystack"",""Q8"":"""",""Q9"":"""",""Q10"":"""",""Q11"":"""",""Q12"":"""",""Q13"":"""",""Q14"":""""}",free_recall,NA,NA,NA,NA,NA,NA,/Users/martincz/GitHub/COGS119/group_wi26_false_recall/analysis/../data/raw_data/p0unvuqxmsj_1772139796099.csv,moose,stimuli/Cogs 119 List 3.wav,thorn,sewing,hurt,knitting,prick,thread,cloth,haystack,,,,,,,,NA,Testing false memory using words that describe a similar setting.,Focused,"Moderate. I understood what the questionnaire was supposed to be and in the back of my head, I knew that the general big terms were not used but rather similar ones. for example, ""sleep"" wasn't given but words like nap, slumber were.",No,It was very clear!,FALSE
63698,survey-text,7,2,198350,p0unvuqxmsj,NA,"{""Q0"":""mountain"",""Q1"":""glacier"",""Q2"":""steep"",""Q3"":""plane"",""Q4"":""hill"",""Q5"":""hike"",""Q6"":""summit"",""Q7"":""ski"",""Q8"":"""",""Q9"":"""",""Q10"":"""",""Q11"":"""",""Q12"":"""",""Q13"":"""",""Q14"":""""}",free_recall,NA,NA,NA,NA,NA,NA,/Users/martincz/GitHub/COGS119/group_wi26_false_recall/analysis/../data/raw_data/p0unvuqxmsj_1772139796099.csv,moose,stimuli/Cogs 119 List 2.wav,mountain,glacier,steep,plane,hill,hike,summit,ski,,,,,,,,NA,Testing false memory using words that describe a similar setting.,Focused,"Moderate. I understood what the questionnaire was supposed to be and in the back of my head, I knew that the general big terms were not used but rather similar ones. for example, ""sleep"" wasn't given but words like nap, slumber were.",No,It was very clear!,FALSE
47380,survey-text,9,3,272524,p0unvuqxmsj,NA,"{""Q0"":""tart"",""Q1"":""cake"",""Q2"":""pie"",""Q3"":""sugar"",""Q4"":""chocolate"",""Q5"":""tooth"",""Q6"":""candy"",""Q7"":""bitter"",""Q8"":""sweet"",""Q9"":""heart"",""Q10"":""sour"",""Q11"":""good"",""Q12"":"""",""Q13"":"""",""Q14"":""""}",free_recall,NA,NA,NA,NA,NA,NA,/Users/martincz/GitHub/COGS119/group_wi26_false_recall/analysis/../data/raw_data/p0unvuqxmsj_1772139796099.csv,moose,stimuli/Cogs 119 List 6.wav,tart,cake,pie,sugar,chocolate,tooth,candy,bitter,sweet,heart,sour,good,,,,NA,Testing false memory using words that describe a similar setting.,Focused,"Moderate. I understood what the questionnaire was supposed to be and in the back of my head, I knew that the general big terms were not used but rather similar ones. for example, ""sleep"" wasn't given but words like nap, slumber were.",No,It was very clear!,FALSE
49422,survey-text,11,4,348571,p0unvuqxmsj,NA,"{""Q0"":""bench"",""Q1"":""rocking"",""Q2"":""recliner"",""Q3"":""stool"",""Q4"":""sofa"",""Q5"":""table"",""Q6"":""desk"",""Q7"":""couch"",""Q8"":""sitting"",""Q9"":""legs"",""Q10"":""chair"",""Q11"":""swivel"",""Q12"":"""",""Q13"":"""",""Q14"":""""}",free_recall,NA,NA,NA,NA,NA,NA,/Users/martincz/GitHub/COGS119/group_wi26_false_recall/analysis/../data/raw_data/p0unvuqxmsj_1772139796099.csv,moose,stimuli/Cogs 119 List 1.wav,bench,rocking,recliner,stool,sofa,table,desk,couch,sitting,legs,chair,swivel,,,,NA,Testing false memory using words that describe a similar setting.,Focused,"Moderate. I understood what the questionnaire was supposed to be and in the back of my head, I knew that the general big terms were not used but rather similar ones. for example, ""sleep"" wasn't given but words like nap, slumber were.",No,It was very clear!,FALSE
69865,survey-text,13,5,445172,p0unvuqxmsj,NA,"{""Q0"":""yawn"",""Q1"":""drowsy"",""Q2"":""snooze"",""Q3"":""nap"",""Q4"":""bed"",""Q5"":""slumber"",""Q6"":""sleep"",""Q7"":""wake"",""Q8"":""wake"",""Q9"":""doze"",""Q10"":""night"",""Q11"":""alarm"",""Q12"":"""",""Q13"":"""",""Q14"":""""}",free_recall,NA,NA,NA,NA,NA,NA,/Users/martincz/GitHub/COGS119/group_wi26_false_recall/analysis/../data/raw_data/p0unvuqxmsj_1772139796099.csv,moose,stimuli/Cogs 119 List 5.wav,yawn,drowsy,snooze,nap,bed,slumber,sleep,wake,wake,doze,night,alarm,,,,NA,Testing false memory using words that describe a similar setting.,Focused,"Moderate. I understood what the questionnaire was supposed to be and in the back of my head, I knew that the general big terms were not used but rather similar ones. for example, ""sleep"" wasn't given but words like nap, slumber were.",No,It was very clear!,FALSE
79430,survey-text,15,6,552019,p0unvuqxmsj,NA,"{""Q0"":""gravel"",""Q1"":""riders"",""Q2"":""rode"",""Q3"":""sandpaper"",""Q4"":""jagged"",""Q5"":""bumpy"",""Q6"":""smooth"",""Q7"":""uneven"",""Q8"":""grass"",""Q9"":"""",""Q10"":"""",""Q11"":"""",""Q12"":"""",""Q13"":"""",""Q14"":""""}",free_recall,NA,NA,NA,NA,NA,NA,/Users/martincz/GitHub/COGS119/group_wi26_false_recall/analysis/../data/raw_data/p0unvuqxmsj_1772139796099.csv,moose,stimuli/Cogs 119 List 4.wav,gravel,riders,rode,sandpaper,jagged,bumpy,smooth,uneven,grass,,,,,,,NA,Testing false memory using words that describe a similar setting.,Focused,"Moderate. I understood what the questionnaire was supposed to be and in the back of my head, I knew that the general big terms were not used but rather similar ones. for example, ""sleep"" wasn't given but words like nap, slumber were.",No,It was very clear!,FALSE
5438,survey-likert,17,7,566704,p0unvuqxmsj,NA,"{""Q0"":3}",recognition,Needle,critical,3,[0],NA,NA,/Users/martincz/GitHub/COGS119/group_wi26_false_recall/analysis/../data/raw_data/p0unvuqxmsj_1772139796099.csv,moose,NA,NA,NA,NA,NA,NA,NA,NA,NA,NA,NA,NA,NA,NA,NA,NA,3,Testing false memory using words that describe a similar setting.,Focused,"Moderate. I understood what the questionnaire was supposed to be and in the back of my head, I knew that the general big terms were not used but rather similar ones. for example, ""sleep"" wasn't given but words like nap, slumber were.",No,It was very clear!,FALSE
5498,survey-likert,18,8,572204,p0unvuqxmsj,NA,"{""Q0"":1}",recognition,Pin,studied,3,[0],NA,NA,/Users/martincz/GitHub/COGS119/group_wi26_false_recall/analysis/../data/raw_data/p0unvuqxmsj_1772139796099.csv,moose,NA,NA,NA,NA,NA,NA,NA,NA,NA,NA,NA,NA,NA,NA,NA,NA,1,Testing false memory using words that describe a similar setting.,Focused,"Moderate. I understood what the questionnaire was supposed to be and in the back of my head, I knew that the general big terms were not used but rather similar ones. for example, ""sleep"" wasn't given but words like nap, slumber were.",No,It was very clear!,FALSE
3036,survey-likert,19,9,575242,p0unvuqxmsj,NA,"{""Q0"":0}",recognition,Stop,unrelated,3,[0],NA,NA,/Users/martincz/GitHub/COGS119/group_wi26_false_recall/analysis/../data/raw_data/p0unvuqxmsj_1772139796099.csv,moose,NA,NA,NA,NA,NA,NA,NA,NA,NA,NA,NA,NA,NA,NA,NA,NA,0,Testing false memory using words that describe a similar setting.,Focused,"Moderate. I understood what the questionnaire was supposed to be and in the back of my head, I knew that the general big terms were not used but rather similar ones. for example, ""sleep"" wasn't given but words like nap, slumber were.",No,It was very clear!,FALSE
2627,survey-likert,20,10,577872,p0unvuqxmsj,NA,"{""Q0"":0}",recognition,Splinter,weakly related,3,[0],NA,NA,/Users/martincz/GitHub/COGS119/group_wi26_false_recall/analysis/../data/raw_data/p0unvuqxmsj_1772139796099.csv,moose,NA,NA,NA,NA,NA,NA,NA,NA,NA,NA,NA,NA,NA,NA,NA,NA,0,Testing false memory using words that describe a similar setting.,Focused,"Moderate. I understood what the questionnaire was supposed to be and in the back of my head, I knew that the general big terms were not used but rather similar ones. for example, ""sleep"" wasn't given but words like nap, slumber were.",No,It was very clear!,FALSE
2656,survey-likert,21,11,580529,p0unvuqxmsj,NA,"{""Q0"":3}",recognition,Thread,studied,3,[0],NA,NA,/Users/martincz/GitHub/COGS119/group_wi26_false_recall/analysis/../data/raw_data/p0unvuqxmsj_1772139796099.csv,moose,NA,NA,NA,NA,NA,NA,NA,NA,NA,NA,NA,NA,NA,NA,NA,NA,3,Testing false memory using words that describe a similar setting.,Focused,"Moderate. I understood what the questionnaire was supposed to be and in the back of my head, I knew that the general big terms were not used but rather similar ones. for example, ""sleep"" wasn't given but words like nap, slumber were.",No,It was very clear!,FALSE
3892,survey-likert,22,12,584423,p0unvuqxmsj,NA,"{""Q0"":0}",recognition,Stitch,weakly related,3,[0],NA,NA,/Users/martincz/GitHub/COGS119/group_wi26_false_recall/analysis/../data/raw_data/p0unvuqxmsj_1772139796099.csv,moose,NA,NA,NA,NA,NA,NA,NA,NA,NA,NA,NA,NA,NA,NA,NA,NA,0,Testing false memory using words that describe a similar setting.,Focused,"Moderate. I understood what the questionnaire was supposed to be and in the back of my head, I knew that the general big terms were not used but rather similar ones. for example, ""sleep"" wasn't given but words like nap, slumber were.",No,It was very clear!,FALSE
3389,survey-likert,23,13,587814,p0unvuqxmsj,NA,"{""Q0"":1}",recognition,Fast,unrelated,3,[0],NA,NA,/Users/martincz/GitHub/COGS119/group_wi26_false_recall/analysis/../data/raw_data/p0unvuqxmsj_1772139796099.csv,moose,NA,NA,NA,NA,NA,NA,NA,NA,NA,NA,NA,NA,NA,NA,NA,NA,1,Testing false memory using words that describe a similar setting.,Focused,"Moderate. I understood what the questionnaire was supposed to be and in the back of my head, I knew that the general big terms were not used but rather similar ones. for example, ""sleep"" wasn't given but words like nap, slumber were.",No,It was very clear!,FALSE
2277,survey-likert,24,14,590094,p0unvuqxmsj,NA,"{""Q0"":3}",recognition,Peak,studied,2,[0],NA,NA,/Users/martincz/GitHub/COGS119/group_wi26_false_recall/analysis/../data/raw_data/p0unvuqxmsj_1772139796099.csv,moose,NA,NA,NA,NA,NA,NA,NA,NA,NA,NA,NA,NA,NA,NA,NA,NA,3,Testing false memory using words that describe a similar setting.,Focused,"Moderate. I understood what the questionnaire was supposed to be and in the back of my head, I knew that the general big terms were not used but rather similar ones. for example, ""sleep"" wasn't given but words like nap, slumber were.",No,It was very clear!,FALSE
2254,survey-likert,25,15,592350,p0unvuqxmsj,NA,"{""Q0"":3}",recognition,Hike,weakly related,2,[0],NA,NA,/Users/martincz/GitHub/COGS119/group_wi26_false_recall/analysis/../data/raw_data/p0unvuqxmsj_1772139796099.csv,moose,NA,NA,NA,NA,NA,NA,NA,NA,NA,NA,NA,NA,NA,NA,NA,NA,3,Testing false memory using words that describe a similar setting.,Focused,"Moderate. I understood what the questionnaire was supposed to be and in the back of my head, I knew that the general big terms were not used but rather similar ones. for example, ""sleep"" wasn't given but words like nap, slumber were.",No,It was very clear!,FALSE
3033,survey-likert,26,16,595386,p0unvuqxmsj,NA,"{""Q0"":0}",recognition,Draw,unrelated,2,[0],NA,NA,/Users/martincz/GitHub/COGS119/group_wi26_false_recall/analysis/../data/raw_data/p0unvuqxmsj_1772139796099.csv,moose,NA,NA,NA,NA,NA,NA,NA,NA,NA,NA,NA,NA,NA,NA,NA,NA,0,Testing false memory using words that describe a similar setting.,Focused,"Moderate. I understood what the questionnaire was supposed to be and in the back of my head, I knew that the general big terms were not used but rather similar ones. for example, ""sleep"" wasn't given but words like nap, slumber were.",No,It was very clear!,FALSE
5241,survey-likert,27,17,600629,p0unvuqxmsj,NA,"{""Q0"":1}",recognition,Mountain,critical,2,[0],NA,NA,/Users/martincz/GitHub/COGS119/group_wi26_false_recall/analysis/../data/raw_data/p0unvuqxmsj_1772139796099.csv,moose,NA,NA,NA,NA,NA,NA,NA,NA,NA,NA,NA,NA,NA,NA,NA,NA,1,Testing false memory using words that describe a similar setting.,Focused,"Moderate. I understood what the questionnaire was supposed to be and in the back of my head, I knew that the general big terms were not used but rather similar ones. for example, ""sleep"" wasn't given but words like nap, slumber were.",No,It was very clear!,FALSE
2551,survey-likert,28,18,603181,p0unvuqxmsj,NA,"{""Q0"":0}",recognition,Car,unrelated,2,[0],NA,NA,/Users/martincz/GitHub/COGS119/group_wi26_false_recall/analysis/../data/raw_data/p0unvuqxmsj_1772139796099.csv,moose,NA,NA,NA,NA,NA,NA,NA,NA,NA,NA,NA,NA,NA,NA,NA,NA,0,Testing false memory using words that describe a similar setting.,Focused,"Moderate. I understood what the questionnaire was supposed to be and in the back of my head, I knew that the general big terms were not used but rather similar ones. for example, ""sleep"" wasn't given but words like nap, slumber were.",No,It was very clear!,FALSE
2326,survey-likert,29,19,605509,p0unvuqxmsj,NA,"{""Q0"":3}",recognition,Hill,studied,2,[0],NA,NA,/Users/martincz/GitHub/COGS119/group_wi26_false_recall/analysis/../data/raw_data/p0unvuqxmsj_1772139796099.csv,moose,NA,NA,NA,NA,NA,NA,NA,NA,NA,NA,NA,NA,NA,NA,NA,NA,3,Testing false memory using words that describe a similar setting.,Focused,"Moderate. I understood what the questionnaire was supposed to be and in the back of my head, I knew that the general big terms were not used but rather similar ones. for example, ""sleep"" wasn't given but words like nap, slumber were.",No,It was very clear!,FALSE
5125,survey-likert,30,20,610636,p0unvuqxmsj,NA,"{""Q0"":2}",recognition,Snow,weakly related,2,[0],NA,NA,/Users/martincz/GitHub/COGS119/group_wi26_false_recall/analysis/../data/raw_data/p0unvuqxmsj_1772139796099.csv,moose,NA,NA,NA,NA,NA,NA,NA,NA,NA,NA,NA,NA,NA,NA,NA,NA,2,Testing false memory using words that describe a similar setting.,Focused,"Moderate. I understood what the questionnaire was supposed to be and in the back of my head, I knew that the general big terms were not used but rather similar ones. for example, ""sleep"" wasn't given but words like nap, slumber were.",No,It was very clear!,FALSE
2401,survey-likert,31,21,613039,p0unvuqxmsj,NA,"{""Q0"":0}",recognition,Cherry,weakly related,6,[0],NA,NA,/Users/martincz/GitHub/COGS119/group_wi26_false_recall/analysis/../data/raw_data/p0unvuqxmsj_1772139796099.csv,moose,NA,NA,NA,NA,NA,NA,NA,NA,NA,NA,NA,NA,NA,NA,NA,NA,0,Testing false memory using words that describe a similar setting.,Focused,"Moderate. I understood what the questionnaire was supposed to be and in the back of my head, I knew that the general big terms were not used but rather similar ones. for example, ""sleep"" wasn't given but words like nap, slumber were.",No,It was very clear!,FALSE
3056,survey-likert,32,22,616097,p0unvuqxmsj,NA,"{""Q0"":3}",recognition,Sugar,studied,6,[0],NA,NA,/Users/martincz/GitHub/COGS119/group_wi26_false_recall/analysis/../data/raw_data/p0unvuqxmsj_1772139796099.csv,moose,NA,NA,NA,NA,NA,NA,NA,NA,NA,NA,NA,NA,NA,NA,NA,NA,3,Testing false memory using words that describe a similar setting.,Focused,"Moderate. I understood what the questionnaire was supposed to be and in the back of my head, I knew that the general big terms were not used but rather similar ones. for example, ""sleep"" wasn't given but words like nap, slumber were.",No,It was very clear!,FALSE
2624,survey-likert,33,23,618723,p0unvuqxmsj,NA,"{""Q0"":0}",recognition,Door,unrelated,6,[0],NA,NA,/Users/martincz/GitHub/COGS119/group_wi26_false_recall/analysis/../data/raw_data/p0unvuqxmsj_1772139796099.csv,moose,NA,NA,NA,NA,NA,NA,NA,NA,NA,NA,NA,NA,NA,NA,NA,NA,0,Testing false memory using words that describe a similar setting.,Focused,"Moderate. I understood what the questionnaire was supposed to be and in the back of my head, I knew that the general big terms were not used but rather similar ones. for example, ""sleep"" wasn't given but words like nap, slumber were.",No,It was very clear!,FALSE
2890,survey-likert,34,24,621615,p0unvuqxmsj,NA,"{""Q0"":3}",recognition,Sweet,critical,6,[0],NA,NA,/Users/martincz/GitHub/COGS119/group_wi26_false_recall/analysis/../data/raw_data/p0unvuqxmsj_1772139796099.csv,moose,NA,NA,NA,NA,NA,NA,NA,NA,NA,NA,NA,NA,NA,NA,NA,NA,3,Testing false memory using words that describe a similar setting.,Focused,"Moderate. I understood what the questionnaire was supposed to be and in the back of my head, I knew that the general big terms were not used but rather similar ones. for example, ""sleep"" wasn't given but words like nap, slumber were.",No,It was very clear!,FALSE
2466,survey-likert,35,25,624082,p0unvuqxmsj,NA,"{""Q0"":0}",recognition,Ghost,unrelated,6,[0],NA,NA,/Users/martincz/GitHub/COGS119/group_wi26_false_recall/analysis/../data/raw_data/p0unvuqxmsj_1772139796099.csv,moose,NA,NA,NA,NA,NA,NA,NA,NA,NA,NA,NA,NA,NA,NA,NA,NA,0,Testing false memory using words that describe a similar setting.,Focused,"Moderate. I understood what the questionnaire was supposed to be and in the back of my head, I knew that the general big terms were not used but rather similar ones. for example, ""sleep"" wasn't given but words like nap, slumber were.",No,It was very clear!,FALSE
4039,survey-likert,36,26,628123,p0unvuqxmsj,NA,"{""Q0"":3}",recognition,Sour,studied,6,[0],NA,NA,/Users/martincz/GitHub/COGS119/group_wi26_false_recall/analysis/../data/raw_data/p0unvuqxmsj_1772139796099.csv,moose,NA,NA,NA,NA,NA,NA,NA,NA,NA,NA,NA,NA,NA,NA,NA,NA,3,Testing false memory using words that describe a similar setting.,Focused,"Moderate. I understood what the questionnaire was supposed to be and in the back of my head, I knew that the general big terms were not used but rather similar ones. for example, ""sleep"" wasn't given but words like nap, slumber were.",No,It was very clear!,FALSE
4617,survey-likert,37,27,632742,p0unvuqxmsj,NA,"{""Q0"":0}",recognition,Salty,weakly related,6,[0],NA,NA,/Users/martincz/GitHub/COGS119/group_wi26_false_recall/analysis/../data/raw_data/p0unvuqxmsj_1772139796099.csv,moose,NA,NA,NA,NA,NA,NA,NA,NA,NA,NA,NA,NA,NA,NA,NA,NA,0,Testing false memory using words that describe a similar setting.,Focused,"Moderate. I understood what the questionnaire was supposed to be and in the back of my head, I knew that the general big terms were not used but rather similar ones. for example, ""sleep"" wasn't given but words like nap, slumber were.",No,It was very clear!,FALSE
3189,survey-likert,38,28,635933,p0unvuqxmsj,NA,"{""Q0"":3}",recognition,Couch,studied,1,[0],NA,NA,/Users/martincz/GitHub/COGS119/group_wi26_false_recall/analysis/../data/raw_data/p0unvuqxmsj_1772139796099.csv,moose,NA,NA,NA,NA,NA,NA,NA,NA,NA,NA,NA,NA,NA,NA,NA,NA,3,Testing false memory using words that describe a similar setting.,Focused,"Moderate. I understood what the questionnaire was supposed to be and in the back of my head, I knew that the general big terms were not used but rather similar ones. for example, ""sleep"" wasn't given but words like nap, slumber were.",No,It was very clear!,FALSE
2230,survey-likert,39,29,638164,p0unvuqxmsj,NA,"{""Q0"":3}",recognition,Chair,critical,1,[0],NA,NA,/Users/martincz/GitHub/COGS119/group_wi26_false_recall/analysis/../data/raw_data/p0unvuqxmsj_1772139796099.csv,moose,NA,NA,NA,NA,NA,NA,NA,NA,NA,NA,NA,NA,NA,NA,NA,NA,3,Testing false memory using words that describe a similar setting.,Focused,"Moderate. I understood what the questionnaire was supposed to be and in the back of my head, I knew that the general big terms were not used but rather similar ones. for example, ""sleep"" wasn't given but words like nap, slumber were.",No,It was very clear!,FALSE
2977,survey-likert,40,30,641143,p0unvuqxmsj,NA,"{""Q0"":0}",recognition,Cushion,weakly related,1,[0],NA,NA,/Users/martincz/GitHub/COGS119/group_wi26_false_recall/analysis/../data/raw_data/p0unvuqxmsj_1772139796099.csv,moose,NA,NA,NA,NA,NA,NA,NA,NA,NA,NA,NA,NA,NA,NA,NA,NA,0,Testing false memory using words that describe a similar setting.,Focused,"Moderate. I understood what the questionnaire was supposed to be and in the back of my head, I knew that the general big terms were not used but rather similar ones. for example, ""sleep"" wasn't given but words like nap, slumber were.",No,It was very clear!,FALSE
2545,survey-likert,41,31,643690,p0unvuqxmsj,NA,"{""Q0"":1}",recognition,Ball,unrelated,1,[0],NA,NA,/Users/martincz/GitHub/COGS119/group_wi26_false_recall/analysis/../data/raw_data/p0unvuqxmsj_1772139796099.csv,moose,NA,NA,NA,NA,NA,NA,NA,NA,NA,NA,NA,NA,NA,NA,NA,NA,1,Testing false memory using words that describe a similar setting.,Focused,"Moderate. I understood what the questionnaire was supposed to be and in the back of my head, I knew that the general big terms were not used but rather similar ones. for example, ""sleep"" wasn't given but words like nap, slumber were.",No,It was very clear!,FALSE
2619,survey-likert,42,32,646310,p0unvuqxmsj,NA,"{""Q0"":3}",recognition,Table,studied,1,[0],NA,NA,/Users/martincz/GitHub/COGS119/group_wi26_false_recall/analysis/../data/raw_data/p0unvuqxmsj_1772139796099.csv,moose,NA,NA,NA,NA,NA,NA,NA,NA,NA,NA,NA,NA,NA,NA,NA,NA,3,Testing false memory using words that describe a similar setting.,Focused,"Moderate. I understood what the questionnaire was supposed to be and in the back of my head, I knew that the general big terms were not used but rather similar ones. for example, ""sleep"" wasn't given but words like nap, slumber were.",No,It was very clear!,FALSE
2793,survey-likert,43,33,649105,p0unvuqxmsj,NA,"{""Q0"":0}",recognition,Shoe,unrelated,1,[0],NA,NA,/Users/martincz/GitHub/COGS119/group_wi26_false_recall/analysis/../data/raw_data/p0unvuqxmsj_1772139796099.csv,moose,NA,NA,NA,NA,NA,NA,NA,NA,NA,NA,NA,NA,NA,NA,NA,NA,0,Testing false memory using words that describe a similar setting.,Focused,"Moderate. I understood what the questionnaire was supposed to be and in the back of my head, I knew that the general big terms were not used but rather similar ones. for example, ""sleep"" wasn't given but words like nap, slumber were.",No,It was very clear!,FALSE
4331,survey-likert,44,34,653438,p0unvuqxmsj,NA,"{""Q0"":0}",recognition,Floor,weakly related,1,[0],NA,NA,/Users/martincz/GitHub/COGS119/group_wi26_false_recall/analysis/../data/raw_data/p0unvuqxmsj_1772139796099.csv,moose,NA,NA,NA,NA,NA,NA,NA,NA,NA,NA,NA,NA,NA,NA,NA,NA,0,Testing false memory using words that describe a similar setting.,Focused,"Moderate. I understood what the questionnaire was supposed to be and in the back of my head, I knew that the general big terms were not used but rather similar ones. for example, ""sleep"" wasn't given but words like nap, slumber were.",No,It was very clear!,FALSE
3804,survey-likert,45,35,657243,p0unvuqxmsj,NA,"{""Q0"":0}",recognition,Calm,weakly related,5,[0],NA,NA,/Users/martincz/GitHub/COGS119/group_wi26_false_recall/analysis/../data/raw_data/p0unvuqxmsj_1772139796099.csv,moose,NA,NA,NA,NA,NA,NA,NA,NA,NA,NA,NA,NA,NA,NA,NA,NA,0,Testing false memory using words that describe a similar setting.,Focused,"Moderate. I understood what the questionnaire was supposed to be and in the back of my head, I knew that the general big terms were not used but rather similar ones. for example, ""sleep"" wasn't given but words like nap, slumber were.",No,It was very clear!,FALSE
3176,survey-likert,46,36,660422,p0unvuqxmsj,NA,"{""Q0"":3}",recognition,Sleep,critical,5,[0],NA,NA,/Users/martincz/GitHub/COGS119/group_wi26_false_recall/analysis/../data/raw_data/p0unvuqxmsj_1772139796099.csv,moose,NA,NA,NA,NA,NA,NA,NA,NA,NA,NA,NA,NA,NA,NA,NA,NA,3,Testing false memory using words that describe a similar setting.,Focused,"Moderate. I understood what the questionnaire was supposed to be and in the back of my head, I knew that the general big terms were not used but rather similar ones. for example, ""sleep"" wasn't given but words like nap, slumber were.",No,It was very clear!,FALSE
2441,survey-likert,47,37,662864,p0unvuqxmsj,NA,"{""Q0"":3}",recognition,Bed,studied,5,[0],NA,NA,/Users/martincz/GitHub/COGS119/group_wi26_false_recall/analysis/../data/raw_data/p0unvuqxmsj_1772139796099.csv,moose,NA,NA,NA,NA,NA,NA,NA,NA,NA,NA,NA,NA,NA,NA,NA,NA,3,Testing false memory using words that describe a similar setting.,Focused,"Moderate. I understood what the questionnaire was supposed to be and in the back of my head, I knew that the general big terms were not used but rather similar ones. for example, ""sleep"" wasn't given but words like nap, slumber were.",No,It was very clear!,FALSE
2963,survey-likert,48,38,665829,p0unvuqxmsj,NA,"{""Q0"":0}",recognition,Chess,unrelated,5,[0],NA,NA,/Users/martincz/GitHub/COGS119/group_wi26_false_recall/analysis/../data/raw_data/p0unvuqxmsj_1772139796099.csv,moose,NA,NA,NA,NA,NA,NA,NA,NA,NA,NA,NA,NA,NA,NA,NA,NA,0,Testing false memory using words that describe a similar setting.,Focused,"Moderate. I understood what the questionnaire was supposed to be and in the back of my head, I knew that the general big terms were not used but rather similar ones. for example, ""sleep"" wasn't given but words like nap, slumber were.",No,It was very clear!,FALSE
5312,survey-likert,49,39,671143,p0unvuqxmsj,NA,"{""Q0"":0}",recognition,Tired,studied,5,[0],NA,NA,/Users/martincz/GitHub/COGS119/group_wi26_false_recall/analysis/../data/raw_data/p0unvuqxmsj_1772139796099.csv,moose,NA,NA,NA,NA,NA,NA,NA,NA,NA,NA,NA,NA,NA,NA,NA,NA,0,Testing false memory using words that describe a similar setting.,Focused,"Moderate. I understood what the questionnaire was supposed to be and in the back of my head, I knew that the general big terms were not used but rather similar ones. for example, ""sleep"" wasn't given but words like nap, slumber were.",No,It was very clear!,FALSE
4462,survey-likert,50,40,675608,p0unvuqxmsj,NA,"{""Q0"":1}",recognition,Fish,unrelated,5,[0],NA,NA,/Users/martincz/GitHub/COGS119/group_wi26_false_recall/analysis/../data/raw_data/p0unvuqxmsj_1772139796099.csv,moose,NA,NA,NA,NA,NA,NA,NA,NA,NA,NA,NA,NA,NA,NA,NA,NA,1,Testing false memory using words that describe a similar setting.,Focused,"Moderate. I understood what the questionnaire was supposed to be and in the back of my head, I knew that the general big terms were not used but rather similar ones. for example, ""sleep"" wasn't given but words like nap, slumber were.",No,It was very clear!,FALSE
5877,survey-likert,51,41,681486,p0unvuqxmsj,NA,"{""Q0"":2}",recognition,Coma,weakly related,5,[0],NA,NA,/Users/martincz/GitHub/COGS119/group_wi26_false_recall/analysis/../data/raw_data/p0unvuqxmsj_1772139796099.csv,moose,NA,NA,NA,NA,NA,NA,NA,NA,NA,NA,NA,NA,NA,NA,NA,NA,2,Testing false memory using words that describe a similar setting.,Focused,"Moderate. I understood what the questionnaire was supposed to be and in the back of my head, I knew that the general big terms were not used but rather similar ones. for example, ""sleep"" wasn't given but words like nap, slumber were.",No,It was very clear!,FALSE
4201,survey-likert,52,42,685689,p0unvuqxmsj,NA,"{""Q0"":0}",recognition,Click: Definitely New,attention_check,none,[0],NA,NA,/Users/martincz/GitHub/COGS119/group_wi26_false_recall/analysis/../data/raw_data/p0unvuqxmsj_1772139796099.csv,moose,NA,NA,NA,NA,NA,NA,NA,NA,NA,NA,NA,NA,NA,NA,NA,NA,0,Testing false memory using words that describe a similar setting.,Focused,"Moderate. I understood what the questionnaire was supposed to be and in the back of my head, I knew that the general big terms were not used but rather similar ones. for example, ""sleep"" wasn't given but words like nap, slumber were.",No,It was very clear!,FALSE
5465,survey-likert,53,43,691156,p0unvuqxmsj,NA,"{""Q0"":0}",recognition,Project,unrelated,4,[0],NA,NA,/Users/martincz/GitHub/COGS119/group_wi26_false_recall/analysis/../data/raw_data/p0unvuqxmsj_1772139796099.csv,moose,NA,NA,NA,NA,NA,NA,NA,NA,NA,NA,NA,NA,NA,NA,NA,NA,0,Testing false memory using words that describe a similar setting.,Focused,"Moderate. I understood what the questionnaire was supposed to be and in the back of my head, I knew that the general big terms were not used but rather similar ones. for example, ""sleep"" wasn't given but words like nap, slumber were.",No,It was very clear!,FALSE
6497,survey-likert,54,44,697654,p0unvuqxmsj,NA,"{""Q0"":2}",recognition,Touch,studied,4,[0],NA,NA,/Users/martincz/GitHub/COGS119/group_wi26_false_recall/analysis/../data/raw_data/p0unvuqxmsj_1772139796099.csv,moose,NA,NA,NA,NA,NA,NA,NA,NA,NA,NA,NA,NA,NA,NA,NA,NA,2,Testing false memory using words that describe a similar setting.,Focused,"Moderate. I understood what the questionnaire was supposed to be and in the back of my head, I knew that the general big terms were not used but rather similar ones. for example, ""sleep"" wasn't given but words like nap, slumber were.",No,It was very clear!,FALSE
3893,survey-likert,55,45,701549,p0unvuqxmsj,NA,"{""Q0"":2}",recognition,Spike,weakly related,4,[0],NA,NA,/Users/martincz/GitHub/COGS119/group_wi26_false_recall/analysis/../data/raw_data/p0unvuqxmsj_1772139796099.csv,moose,NA,NA,NA,NA,NA,NA,NA,NA,NA,NA,NA,NA,NA,NA,NA,NA,2,Testing false memory using words that describe a similar setting.,Focused,"Moderate. I understood what the questionnaire was supposed to be and in the back of my head, I knew that the general big terms were not used but rather similar ones. for example, ""sleep"" wasn't given but words like nap, slumber were.",No,It was very clear!,FALSE
4111,survey-likert,56,46,705662,p0unvuqxmsj,NA,"{""Q0"":1}",recognition,Chalk,weakly related,4,[0],NA,NA,/Users/martincz/GitHub/COGS119/group_wi26_false_recall/analysis/../data/raw_data/p0unvuqxmsj_1772139796099.csv,moose,NA,NA,NA,NA,NA,NA,NA,NA,NA,NA,NA,NA,NA,NA,NA,NA,1,Testing false memory using words that describe a similar setting.,Focused,"Moderate. I understood what the questionnaire was supposed to be and in the back of my head, I knew that the general big terms were not used but rather similar ones. for example, ""sleep"" wasn't given but words like nap, slumber were.",No,It was very clear!,FALSE
4295,survey-likert,57,47,709959,p0unvuqxmsj,NA,"{""Q0"":0}",recognition,Key,unrelated,4,[0],NA,NA,/Users/martincz/GitHub/COGS119/group_wi26_false_recall/analysis/../data/raw_data/p0unvuqxmsj_1772139796099.csv,moose,NA,NA,NA,NA,NA,NA,NA,NA,NA,NA,NA,NA,NA,NA,NA,NA,0,Testing false memory using words that describe a similar setting.,Focused,"Moderate. I understood what the questionnaire was supposed to be and in the back of my head, I knew that the general big terms were not used but rather similar ones. for example, ""sleep"" wasn't given but words like nap, slumber were.",No,It was very clear!,FALSE
3208,survey-likert,58,48,713169,p0unvuqxmsj,NA,"{""Q0"":3}",recognition,Smooth,studied,4,[0],NA,NA,/Users/martincz/GitHub/COGS119/group_wi26_false_recall/analysis/../data/raw_data/p0unvuqxmsj_1772139796099.csv,moose,NA,NA,NA,NA,NA,NA,NA,NA,NA,NA,NA,NA,NA,NA,NA,NA,3,Testing false memory using words that describe a similar setting.,Focused,"Moderate. I understood what the questionnaire was supposed to be and in the back of my head, I knew that the general big terms were not used but rather similar ones. for example, ""sleep"" wasn't given but words like nap, slumber were.",No,It was very clear!,FALSE
2804,survey-likert,59,49,715974,p0unvuqxmsj,NA,"{""Q0"":3}",recognition,Rough,critical,4,[0],NA,NA,/Users/martincz/GitHub/COGS119/group_wi26_false_recall/analysis/../data/raw_data/p0unvuqxmsj_1772139796099.csv,moose,NA,NA,NA,NA,NA,NA,NA,NA,NA,NA,NA,NA,NA,NA,NA,NA,3,Testing false memory using words that describe a similar setting.,Focused,"Moderate. I understood what the questionnaire was supposed to be and in the back of my head, I knew that the general big terms were not used but rather similar ones. for example, ""sleep"" wasn't given but words like nap, slumber were.",No,It was very clear!,FALSE
1148,html-keyboard-response,62,50,735739,p0unvuqxmsj,<h1>Sour</h1>,s,speed_game,Sour,NA,NA,NA,s,TRUE,/Users/martincz/GitHub/COGS119/group_wi26_false_recall/analysis/../data/raw_data/p0unvuqxmsj_1772139796099.csv,moose,NA,NA,NA,NA,NA,NA,NA,NA,NA,NA,NA,NA,NA,NA,NA,NA,NA,Testing false memory using words that describe a similar setting.,Focused,"Moderate. I understood what the questionnaire was supposed to be and in the back of my head, I knew that the general big terms were not used but rather similar ones. for example, ""sleep"" wasn't given but words like nap, slumber were.",No,It was very clear!,FALSE
709,html-keyboard-response,64,51,737259,p0unvuqxmsj,<h1>Sugar</h1>,s,speed_game,Sugar,NA,NA,NA,s,TRUE,/Users/martincz/GitHub/COGS119/group_wi26_false_recall/analysis/../data/raw_data/p0unvuqxmsj_1772139796099.csv,moose,NA,NA,NA,NA,NA,NA,NA,NA,NA,NA,NA,NA,NA,NA,NA,NA,NA,Testing false memory using words that describe a similar setting.,Focused,"Moderate. I understood what the questionnaire was supposed to be and in the back of my head, I knew that the general big terms were not used but rather similar ones. for example, ""sleep"" wasn't given but words like nap, slumber were.",No,It was very clear!,FALSE
646,html-keyboard-response,66,52,738709,p0unvuqxmsj,<h1>Hill</h1>,s,speed_game,Hill,NA,NA,NA,s,TRUE,/Users/martincz/GitHub/COGS119/group_wi26_false_recall/analysis/../data/raw_data/p0unvuqxmsj_1772139796099.csv,moose,NA,NA,NA,NA,NA,NA,NA,NA,NA,NA,NA,NA,NA,NA,NA,NA,NA,Testing false memory using words that describe a similar setting.,Focused,"Moderate. I understood what the questionnaire was supposed to be and in the back of my head, I knew that the general big terms were not used but rather similar ones. for example, ""sleep"" wasn't given but words like nap, slumber were.",No,It was very clear!,FALSE
635,html-keyboard-response,68,53,740160,p0unvuqxmsj,<h1>Couch</h1>,s,speed_game,Couch,NA,NA,NA,s,TRUE,/Users/martincz/GitHub/COGS119/group_wi26_false_recall/analysis/../data/raw_data/p0unvuqxmsj_1772139796099.csv,moose,NA,NA,NA,NA,NA,NA,NA,NA,NA,NA,NA,NA,NA,NA,NA,NA,NA,Testing false memory using words that describe a similar setting.,Focused,"Moderate. I understood what the questionnaire was supposed to be and in the back of my head, I knew that the general big terms were not used but rather similar ones. for example, ""sleep"" wasn't given but words like nap, slumber were.",No,It was very clear!,FALSE
673,html-keyboard-response,70,54,741643,p0unvuqxmsj,<h1>Sweet</h1>,s,speed_game,Sweet,NA,NA,NA,n,FALSE,/Users/martincz/GitHub/COGS119/group_wi26_false_recall/analysis/../data/raw_data/p0unvuqxmsj_1772139796099.csv,moose,NA,NA,NA,NA,NA,NA,NA,NA,NA,NA,NA,NA,NA,NA,NA,NA,NA,Testing false memory using words that describe a similar setting.,Focused,"Moderate. I understood what the questionnaire was supposed to be and in the back of my head, I knew that the general big terms were not used but rather similar ones. for example, ""sleep"" wasn't given but words like nap, slumber were.",No,It was very clear!,FALSE
1621,html-keyboard-response,72,55,744076,p0unvuqxmsj,<h1>Chair</h1>,s,speed_game,Chair,NA,NA,NA,n,FALSE,/Users/martincz/GitHub/COGS119/group_wi26_false_recall/analysis/../data/raw_data/p0unvuqxmsj_1772139796099.csv,moose,NA,NA,NA,NA,NA,NA,NA,NA,NA,NA,NA,NA,NA,NA,NA,NA,NA,Testing false memory using words that describe a similar setting.,Focused,"Moderate. I understood what the questionnaire was supposed to be and in the back of my head, I knew that the general big terms were not used but rather similar ones. for example, ""sleep"" wasn't given but words like nap, slumber were.",No,It was very clear!,FALSE
999,html-keyboard-response,74,56,745884,p0unvuqxmsj,<h1>Thread</h1>,s,speed_game,Thread,NA,NA,NA,s,TRUE,/Users/martincz/GitHub/COGS119/group_wi26_false_recall/analysis/../data/raw_data/p0unvuqxmsj_1772139796099.csv,moose,NA,NA,NA,NA,NA,NA,NA,NA,NA,NA,NA,NA,NA,NA,NA,NA,NA,Testing false memory using words that describe a similar setting.,Focused,"Moderate. I understood what the questionnaire was supposed to be and in the back of my head, I knew that the general big terms were not used but rather similar ones. for example, ""sleep"" wasn't given but words like nap, slumber were.",No,It was very clear!,FALSE
1479,html-keyboard-response,76,57,748172,p0unvuqxmsj,<h1>Mountain</h1>,n,speed_game,Mountain,NA,NA,NA,n,TRUE,/Users/martincz/GitHub/COGS119/group_wi26_false_recall/analysis/../data/raw_data/p0unvuqxmsj_1772139796099.csv,moose,NA,NA,NA,NA,NA,NA,NA,NA,NA,NA,NA,NA,NA,NA,NA,NA,NA,Testing false memory using words that describe a similar setting.,Focused,"Moderate. I understood what the questionnaire was supposed to be and in the back of my head, I knew that the general big terms were not used but rather similar ones. for example, ""sleep"" wasn't given but words like nap, slumber were.",No,It was very clear!,FALSE
924,html-keyboard-response,78,58,749904,p0unvuqxmsj,<h1>Pin</h1>,s,speed_game,Pin,NA,NA,NA,s,TRUE,/Users/martincz/GitHub/COGS119/group_wi26_false_recall/analysis/../data/raw_data/p0unvuqxmsj_1772139796099.csv,moose,NA,NA,NA,NA,NA,NA,NA,NA,NA,NA,NA,NA,NA,NA,NA,NA,NA,Testing false memory using words that describe a similar setting.,Focused,"Moderate. I understood what the questionnaire was supposed to be and in the back of my head, I knew that the general big terms were not used but rather similar ones. for example, ""sleep"" wasn't given but words like nap, slumber were.",No,It was very clear!,FALSE
1079,html-keyboard-response,80,59,751785,p0unvuqxmsj,<h1>Click N</h1>,n,speed_attention_check,NA,NA,NA,NA,NA,TRUE,/Users/martincz/GitHub/COGS119/group_wi26_false_recall/analysis/../data/raw_data/p0unvuqxmsj_1772139796099.csv,moose,NA,NA,NA,NA,NA,NA,NA,NA,NA,NA,NA,NA,NA,NA,NA,NA,NA,Testing false memory using words that describe a similar setting.,Focused,"Moderate. I understood what the questionnaire was supposed to be and in the back of my head, I knew that the general big terms were not used but rather similar ones. for example, ""sleep"" wasn't given but words like nap, slumber were.",No,It was very clear!,FALSE
1977,html-keyboard-response,81,60,753763,p0unvuqxmsj,<h1>Tired</h1>,n,speed_game,Tired,NA,NA,NA,s,FALSE,/Users/martincz/GitHub/COGS119/group_wi26_false_recall/analysis/../data/raw_data/p0unvuqxmsj_1772139796099.csv,moose,NA,NA,NA,NA,NA,NA,NA,NA,NA,NA,NA,NA,NA,NA,NA,NA,NA,Testing false memory using words that describe a similar setting.,Focused,"Moderate. I understood what the questionnaire was supposed to be and in the back of my head, I knew that the general big terms were not used but rather similar ones. for example, ""sleep"" wasn't given but words like nap, slumber were.",No,It was very clear!,FALSE
669,html-keyboard-response,83,61,755249,p0unvuqxmsj,<h1>Bed</h1>,s,speed_game,Bed,NA,NA,NA,s,TRUE,/Users/martincz/GitHub/COGS119/group_wi26_false_recall/analysis/../data/raw_data/p0unvuqxmsj_1772139796099.csv,moose,NA,NA,NA,NA,NA,NA,NA,NA,NA,NA,NA,NA,NA,NA,NA,NA,NA,Testing false memory using words that describe a similar setting.,Focused,"Moderate. I understood what the questionnaire was supposed to be and in the back of my head, I knew that the general big terms were not used but rather similar ones. for example, ""sleep"" wasn't given but words like nap, slumber were.",No,It was very clear!,FALSE
756,html-keyboard-response,85,62,756819,p0unvuqxmsj,<h1>Peak</h1>,s,speed_game,Peak,NA,NA,NA,s,TRUE,/Users/martincz/GitHub/COGS119/group_wi26_false_recall/analysis/../data/raw_data/p0unvuqxmsj_1772139796099.csv,moose,NA,NA,NA,NA,NA,NA,NA,NA,NA,NA,NA,NA,NA,NA,NA,NA,NA,Testing false memory using words that describe a similar setting.,Focused,"Moderate. I understood what the questionnaire was supposed to be and in the back of my head, I knew that the general big terms were not used but rather similar ones. for example, ""sleep"" wasn't given but words like nap, slumber were.",No,It was very clear!,FALSE
748,html-keyboard-response,87,63,758383,p0unvuqxmsj,<h1>Table</h1>,s,speed_game,Table,NA,NA,NA,s,TRUE,/Users/martincz/GitHub/COGS119/group_wi26_false_recall/analysis/../data/raw_data/p0unvuqxmsj_1772139796099.csv,moose,NA,NA,NA,NA,NA,NA,NA,NA,NA,NA,NA,NA,NA,NA,NA,NA,NA,Testing false memory using words that describe a similar setting.,Focused,"Moderate. I understood what the questionnaire was supposed to be and in the back of my head, I knew that the general big terms were not used but rather similar ones. for example, ""sleep"" wasn't given but words like nap, slumber were.",No,It was very clear!,FALSE
977,html-keyboard-response,89,64,760168,p0unvuqxmsj,<h1>Sleep</h1>,n,speed_game,Sleep,NA,NA,NA,n,TRUE,/Users/martincz/GitHub/COGS119/group_wi26_false_recall/analysis/../data/raw_data/p0unvuqxmsj_1772139796099.csv,moose,NA,NA,NA,NA,NA,NA,NA,NA,NA,NA,NA,NA,NA,NA,NA,NA,NA,Testing false memory using words that describe a similar setting.,Focused,"Moderate. I understood what the questionnaire was supposed to be and in the back of my head, I knew that the general big terms were not used but rather similar ones. for example, ""sleep"" wasn't given but words like nap, slumber were.",No,It was very clear!,FALSE
1474,html-keyboard-response,91,65,762454,p0unvuqxmsj,<h1>Touch</h1>,n,speed_game,Touch,NA,NA,NA,s,FALSE,/Users/martincz/GitHub/COGS119/group_wi26_false_recall/analysis/../data/raw_data/p0unvuqxmsj_1772139796099.csv,moose,NA,NA,NA,NA,NA,NA,NA,NA,NA,NA,NA,NA,NA,NA,NA,NA,NA,Testing false memory using words that describe a similar setting.,Focused,"Moderate. I understood what the questionnaire was supposed to be and in the back of my head, I knew that the general big terms were not used but rather similar ones. for example, ""sleep"" wasn't given but words like nap, slumber were.",No,It was very clear!,FALSE
1561,html-keyboard-response,93,66,764818,p0unvuqxmsj,<h1>Needle</h1>,s,speed_game,Needle,NA,NA,NA,n,FALSE,/Users/martincz/GitHub/COGS119/group_wi26_false_recall/analysis/../data/raw_data/p0unvuqxmsj_1772139796099.csv,moose,NA,NA,NA,NA,NA,NA,NA,NA,NA,NA,NA,NA,NA,NA,NA,NA,NA,Testing false memory using words that describe a similar setting.,Focused,"Moderate. I understood what the questionnaire was supposed to be and in the back of my head, I knew that the general big terms were not used but rather similar ones. for example, ""sleep"" wasn't given but words like nap, slumber were.",No,It was very clear!,FALSE
926,html-keyboard-response,95,67,766551,p0unvuqxmsj,<h1>Rough</h1>,s,speed_game,Rough,NA,NA,NA,n,FALSE,/Users/martincz/GitHub/COGS119/group_wi26_false_recall/analysis/../data/raw_data/p0unvuqxmsj_1772139796099.csv,moose,NA,NA,NA,NA,NA,NA,NA,NA,NA,NA,NA,NA,NA,NA,NA,NA,NA,Testing false memory using words that describe a similar setting.,Focused,"Moderate. I understood what the questionnaire was supposed to be and in the back of my head, I knew that the general big terms were not used but rather similar ones. for example, ""sleep"" wasn't given but words like nap, slumber were.",No,It was very clear!,FALSE
744,html-keyboard-response,97,68,768111,p0unvuqxmsj,<h1>Smooth</h1>,s,speed_game,Smooth,NA,NA,NA,s,TRUE,/Users/martincz/GitHub/COGS119/group_wi26_false_recall/analysis/../data/raw_data/p0unvuqxmsj_1772139796099.csv,moose,NA,NA,NA,NA,NA,NA,NA,NA,NA,NA,NA,NA,NA,NA,NA,NA,NA,Testing false memory using words that describe a similar setting.,Focused,"Moderate. I understood what the questionnaire was supposed to be and in the back of my head, I knew that the general big terms were not used but rather similar ones. for example, ""sleep"" wasn't given but words like nap, slumber were.",No,It was very clear!,FALSE
95009,survey-text,5,1,167672,p18qqcvw3zt,NA,"{""Q0"":""smooth"",""Q1"":""bumpy"",""Q2"":""road"",""Q3"":""rough"",""Q4"":""coarse"",""Q5"":""sand"",""Q6"":""sandpaper"",""Q7"":""boards"",""Q8"":""riders"",""Q9"":""uneven"",""Q10"":""gravel"",""Q11"":""stone"",""Q12"":"""",""Q13"":"""",""Q14"":""""}",free_recall,NA,NA,NA,NA,NA,NA,/Users/martincz/GitHub/COGS119/group_wi26_false_recall/analysis/../data/raw_data/p18qqcvw3zt_1772138691987.csv,jaguar,stimuli/Cogs 119 List 4.wav,smooth,bumpy,road,rough,coarse,sand,sandpaper,boards,riders,uneven,gravel,stone,,,,NA,Participants' ability to assume and make up words that they think they remember in the list due to their semantic associations.,Not confident.,"Quite difficult, each time I could only confidently remember around 10 words out of the 15.",N/A,N/A,FALSE
66302,survey-text,7,2,261244,p18qqcvw3zt,NA,"{""Q0"":""bed"",""Q1"":""rest"",""Q2"":""awake"",""Q3"":""dream"",""Q4"":""slumber"",""Q5"":""snooze"",""Q6"":""yawn"",""Q7"":""awake"",""Q8"":""drowsy"",""Q9"":""blanket"",""Q10"":""nap"",""Q11"":""snooze"",""Q12"":"""",""Q13"":"""",""Q14"":""""}",free_recall,NA,NA,NA,NA,NA,NA,/Users/martincz/GitHub/COGS119/group_wi26_false_recall/analysis/../data/raw_data/p18qqcvw3zt_1772138691987.csv,jaguar,stimuli/Cogs 119 List 5.wav,bed,rest,awake,dream,slumber,snooze,yawn,awake,drowsy,blanket,nap,snooze,,,,NA,Participants' ability to assume and make up words that they think they remember in the list due to their semantic associations.,Not confident.,"Quite difficult, each time I could only confidently remember around 10 words out of the 15.",N/A,N/A,FALSE
58393,survey-text,9,3,346999,p18qqcvw3zt,NA,"{""Q0"":""bike"",""Q1"":""climber"",""Q2"":""range"",""Q3"":""ski"",""Q4"":""mountain"",""Q5"":""valley"",""Q6"":""top"",""Q7"":""summit"",""Q8"":""molehill"",""Q9"":""steep"",""Q10"":""goat"",""Q11"":""climb"",""Q12"":"""",""Q13"":"""",""Q14"":""""}",free_recall,NA,NA,NA,NA,NA,NA,/Users/martincz/GitHub/COGS119/group_wi26_false_recall/analysis/../data/raw_data/p18qqcvw3zt_1772138691987.csv,jaguar,stimuli/Cogs 119 List 2.wav,bike,climber,range,ski,mountain,valley,top,summit,molehill,steep,goat,climb,,,,NA,Participants' ability to assume and make up words that they think they remember in the list due to their semantic associations.,Not confident.,"Quite difficult, each time I could only confidently remember around 10 words out of the 15.",N/A,N/A,FALSE
39886,survey-text,11,4,413913,p18qqcvw3zt,NA,"{""Q0"":""syringe"",""Q1"":""claw"",""Q2"":""knitting"",""Q3"":""thorn"",""Q4"":""prick"",""Q5"":""point"",""Q6"":""sharp"",""Q7"":""hurt"",""Q8"":""haystack"",""Q9"":""needle"",""Q10"":""sewing"",""Q11"":""thimble"",""Q12"":"""",""Q13"":"""",""Q14"":""""}",free_recall,NA,NA,NA,NA,NA,NA,/Users/martincz/GitHub/COGS119/group_wi26_false_recall/analysis/../data/raw_data/p18qqcvw3zt_1772138691987.csv,jaguar,stimuli/Cogs 119 List 3.wav,syringe,claw,knitting,thorn,prick,point,sharp,hurt,haystack,needle,sewing,thimble,,,,NA,Participants' ability to assume and make up words that they think they remember in the list due to their semantic associations.,Not confident.,"Quite difficult, each time I could only confidently remember around 10 words out of the 15.",N/A,N/A,FALSE
51546,survey-text,13,5,492984,p18qqcvw3zt,NA,"{""Q0"":""cake"",""Q1"":""tart"",""Q2"":""pie"",""Q3"":""chocolate"",""Q4"":""heart"",""Q5"":""sour"",""Q6"":""candy"",""Q7"":""good"",""Q8"":""taste"",""Q9"":"""",""Q10"":"""",""Q11"":"""",""Q12"":"""",""Q13"":"""",""Q14"":""""}",free_recall,NA,NA,NA,NA,NA,NA,/Users/martincz/GitHub/COGS119/group_wi26_false_recall/analysis/../data/raw_data/p18qqcvw3zt_1772138691987.csv,jaguar,stimuli/Cogs 119 List 6.wav,cake,tart,pie,chocolate,heart,sour,candy,good,taste,,,,,,,NA,Participants' ability to assume and make up words that they think they remember in the list due to their semantic associations.,Not confident.,"Quite difficult, each time I could only confidently remember around 10 words out of the 15.",N/A,N/A,FALSE
55415,survey-text,15,6,575781,p18qqcvw3zt,NA,"{""Q0"":""rocking"",""Q1"":""bench"",""Q2"":""table"",""Q3"":""stool"",""Q4"":""sit"",""Q5"":""sitting"",""Q6"":""legs"",""Q7"":""recliner"",""Q8"":""couch"",""Q9"":""desk"",""Q10"":"""",""Q11"":"""",""Q12"":"""",""Q13"":"""",""Q14"":""""}",free_recall,NA,NA,NA,NA,NA,NA,/Users/martincz/GitHub/COGS119/group_wi26_false_recall/analysis/../data/raw_data/p18qqcvw3zt_1772138691987.csv,jaguar,stimuli/Cogs 119 List 1.wav,rocking,bench,table,stool,sit,sitting,legs,recliner,couch,desk,,,,,,NA,Participants' ability to assume and make up words that they think they remember in the list due to their semantic associations.,Not confident.,"Quite difficult, each time I could only confidently remember around 10 words out of the 15.",N/A,N/A,FALSE
6638,survey-likert,17,7,588525,p18qqcvw3zt,NA,"{""Q0"":1}",recognition,Touch,studied,4,[0],NA,NA,/Users/martincz/GitHub/COGS119/group_wi26_false_recall/analysis/../data/raw_data/p18qqcvw3zt_1772138691987.csv,jaguar,NA,NA,NA,NA,NA,NA,NA,NA,NA,NA,NA,NA,NA,NA,NA,NA,1,Participants' ability to assume and make up words that they think they remember in the list due to their semantic associations.,Not confident.,"Quite difficult, each time I could only confidently remember around 10 words out of the 15.",N/A,N/A,FALSE
3894,survey-likert,18,8,592423,p18qqcvw3zt,NA,"{""Q0"":0}",recognition,Key,unrelated,4,[0],NA,NA,/Users/martincz/GitHub/COGS119/group_wi26_false_recall/analysis/../data/raw_data/p18qqcvw3zt_1772138691987.csv,jaguar,NA,NA,NA,NA,NA,NA,NA,NA,NA,NA,NA,NA,NA,NA,NA,NA,0,Participants' ability to assume and make up words that they think they remember in the list due to their semantic associations.,Not confident.,"Quite difficult, each time I could only confidently remember around 10 words out of the 15.",N/A,N/A,FALSE
2035,survey-likert,19,9,594462,p18qqcvw3zt,NA,"{""Q0"":0}",recognition,Chalk,weakly related,4,[0],NA,NA,/Users/martincz/GitHub/COGS119/group_wi26_false_recall/analysis/../data/raw_data/p18qqcvw3zt_1772138691987.csv,jaguar,NA,NA,NA,NA,NA,NA,NA,NA,NA,NA,NA,NA,NA,NA,NA,NA,0,Participants' ability to assume and make up words that they think they remember in the list due to their semantic associations.,Not confident.,"Quite difficult, each time I could only confidently remember around 10 words out of the 15.",N/A,N/A,FALSE
1950,survey-likert,20,10,596415,p18qqcvw3zt,NA,"{""Q0"":0}",recognition,Project,unrelated,4,[0],NA,NA,/Users/martincz/GitHub/COGS119/group_wi26_false_recall/analysis/../data/raw_data/p18qqcvw3zt_1772138691987.csv,jaguar,NA,NA,NA,NA,NA,NA,NA,NA,NA,NA,NA,NA,NA,NA,NA,NA,0,Participants' ability to assume and make up words that they think they remember in the list due to their semantic associations.,Not confident.,"Quite difficult, each time I could only confidently remember around 10 words out of the 15.",N/A,N/A,FALSE
2202,survey-likert,21,11,598621,p18qqcvw3zt,NA,"{""Q0"":3}",recognition,Rough,critical,4,[0],NA,NA,/Users/martincz/GitHub/COGS119/group_wi26_false_recall/analysis/../data/raw_data/p18qqcvw3zt_1772138691987.csv,jaguar,NA,NA,NA,NA,NA,NA,NA,NA,NA,NA,NA,NA,NA,NA,NA,NA,3,Participants' ability to assume and make up words that they think they remember in the list due to their semantic associations.,Not confident.,"Quite difficult, each time I could only confidently remember around 10 words out of the 15.",N/A,N/A,FALSE
5571,survey-likert,22,12,604195,p18qqcvw3zt,NA,"{""Q0"":2}",recognition,Spike,weakly related,4,[0],NA,NA,/Users/martincz/GitHub/COGS119/group_wi26_false_recall/analysis/../data/raw_data/p18qqcvw3zt_1772138691987.csv,jaguar,NA,NA,NA,NA,NA,NA,NA,NA,NA,NA,NA,NA,NA,NA,NA,NA,2,Participants' ability to assume and make up words that they think they remember in the list due to their semantic associations.,Not confident.,"Quite difficult, each time I could only confidently remember around 10 words out of the 15.",N/A,N/A,FALSE
1768,survey-likert,23,13,605967,p18qqcvw3zt,NA,"{""Q0"":3}",recognition,Smooth,studied,4,[0],NA,NA,/Users/martincz/GitHub/COGS119/group_wi26_false_recall/analysis/../data/raw_data/p18qqcvw3zt_1772138691987.csv,jaguar,NA,NA,NA,NA,NA,NA,NA,NA,NA,NA,NA,NA,NA,NA,NA,NA,3,Participants' ability to assume and make up words that they think they remember in the list due to their semantic associations.,Not confident.,"Quite difficult, each time I could only confidently remember around 10 words out of the 15.",N/A,N/A,FALSE
4455,survey-likert,24,14,610425,p18qqcvw3zt,NA,"{""Q0"":0}",recognition,Click: Definitely New,attention_check,none,[0],NA,NA,/Users/martincz/GitHub/COGS119/group_wi26_false_recall/analysis/../data/raw_data/p18qqcvw3zt_1772138691987.csv,jaguar,NA,NA,NA,NA,NA,NA,NA,NA,NA,NA,NA,NA,NA,NA,NA,NA,0,Participants' ability to assume and make up words that they think they remember in the list due to their semantic associations.,Not confident.,"Quite difficult, each time I could only confidently remember around 10 words out of the 15.",N/A,N/A,FALSE
5023,survey-likert,25,15,615452,p18qqcvw3zt,NA,"{""Q0"":2}",recognition,Tired,studied,5,[0],NA,NA,/Users/martincz/GitHub/COGS119/group_wi26_false_recall/analysis/../data/raw_data/p18qqcvw3zt_1772138691987.csv,jaguar,NA,NA,NA,NA,NA,NA,NA,NA,NA,NA,NA,NA,NA,NA,NA,NA,2,Participants' ability to assume and make up words that they think they remember in the list due to their semantic associations.,Not confident.,"Quite difficult, each time I could only confidently remember around 10 words out of the 15.",N/A,N/A,FALSE
1629,survey-likert,26,16,617084,p18qqcvw3zt,NA,"{""Q0"":3}",recognition,Sleep,critical,5,[0],NA,NA,/Users/martincz/GitHub/COGS119/group_wi26_false_recall/analysis/../data/raw_data/p18qqcvw3zt_1772138691987.csv,jaguar,NA,NA,NA,NA,NA,NA,NA,NA,NA,NA,NA,NA,NA,NA,NA,NA,3,Participants' ability to assume and make up words that they think they remember in the list due to their semantic associations.,Not confident.,"Quite difficult, each time I could only confidently remember around 10 words out of the 15.",N/A,N/A,FALSE
2405,survey-likert,27,17,619492,p18qqcvw3zt,NA,"{""Q0"":3}",recognition,Bed,studied,5,[0],NA,NA,/Users/martincz/GitHub/COGS119/group_wi26_false_recall/analysis/../data/raw_data/p18qqcvw3zt_1772138691987.csv,jaguar,NA,NA,NA,NA,NA,NA,NA,NA,NA,NA,NA,NA,NA,NA,NA,NA,3,Participants' ability to assume and make up words that they think they remember in the list due to their semantic associations.,Not confident.,"Quite difficult, each time I could only confidently remember around 10 words out of the 15.",N/A,N/A,FALSE
4496,survey-likert,28,18,623992,p18qqcvw3zt,NA,"{""Q0"":0}",recognition,Calm,weakly related,5,[0],NA,NA,/Users/martincz/GitHub/COGS119/group_wi26_false_recall/analysis/../data/raw_data/p18qqcvw3zt_1772138691987.csv,jaguar,NA,NA,NA,NA,NA,NA,NA,NA,NA,NA,NA,NA,NA,NA,NA,NA,0,Participants' ability to assume and make up words that they think they remember in the list due to their semantic associations.,Not confident.,"Quite difficult, each time I could only confidently remember around 10 words out of the 15.",N/A,N/A,FALSE
1741,survey-likert,29,19,625736,p18qqcvw3zt,NA,"{""Q0"":0}",recognition,Fish,unrelated,5,[0],NA,NA,/Users/martincz/GitHub/COGS119/group_wi26_false_recall/analysis/../data/raw_data/p18qqcvw3zt_1772138691987.csv,jaguar,NA,NA,NA,NA,NA,NA,NA,NA,NA,NA,NA,NA,NA,NA,NA,NA,0,Participants' ability to assume and make up words that they think they remember in the list due to their semantic associations.,Not confident.,"Quite difficult, each time I could only confidently remember around 10 words out of the 15.",N/A,N/A,FALSE
3574,survey-likert,30,20,629312,p18qqcvw3zt,NA,"{""Q0"":0}",recognition,Coma,weakly related,5,[0],NA,NA,/Users/martincz/GitHub/COGS119/group_wi26_false_recall/analysis/../data/raw_data/p18qqcvw3zt_1772138691987.csv,jaguar,NA,NA,NA,NA,NA,NA,NA,NA,NA,NA,NA,NA,NA,NA,NA,NA,0,Participants' ability to assume and make up words that they think they remember in the list due to their semantic associations.,Not confident.,"Quite difficult, each time I could only confidently remember around 10 words out of the 15.",N/A,N/A,FALSE
2308,survey-likert,31,21,631623,p18qqcvw3zt,NA,"{""Q0"":0}",recognition,Chess,unrelated,5,[0],NA,NA,/Users/martincz/GitHub/COGS119/group_wi26_false_recall/analysis/../data/raw_data/p18qqcvw3zt_1772138691987.csv,jaguar,NA,NA,NA,NA,NA,NA,NA,NA,NA,NA,NA,NA,NA,NA,NA,NA,0,Participants' ability to assume and make up words that they think they remember in the list due to their semantic associations.,Not confident.,"Quite difficult, each time I could only confidently remember around 10 words out of the 15.",N/A,N/A,FALSE
2601,survey-likert,32,22,634228,p18qqcvw3zt,NA,"{""Q0"":3}",recognition,Peak,studied,2,[0],NA,NA,/Users/martincz/GitHub/COGS119/group_wi26_false_recall/analysis/../data/raw_data/p18qqcvw3zt_1772138691987.csv,jaguar,NA,NA,NA,NA,NA,NA,NA,NA,NA,NA,NA,NA,NA,NA,NA,NA,3,Participants' ability to assume and make up words that they think they remember in the list due to their semantic associations.,Not confident.,"Quite difficult, each time I could only confidently remember around 10 words out of the 15.",N/A,N/A,FALSE
3784,survey-likert,33,23,638016,p18qqcvw3zt,NA,"{""Q0"":0}",recognition,Snow,weakly related,2,[0],NA,NA,/Users/martincz/GitHub/COGS119/group_wi26_false_recall/analysis/../data/raw_data/p18qqcvw3zt_1772138691987.csv,jaguar,NA,NA,NA,NA,NA,NA,NA,NA,NA,NA,NA,NA,NA,NA,NA,NA,0,Participants' ability to assume and make up words that they think they remember in the list due to their semantic associations.,Not confident.,"Quite difficult, each time I could only confidently remember around 10 words out of the 15.",N/A,N/A,FALSE
3090,survey-likert,34,24,641110,p18qqcvw3zt,NA,"{""Q0"":2}",recognition,Hill,studied,2,[0],NA,NA,/Users/martincz/GitHub/COGS119/group_wi26_false_recall/analysis/../data/raw_data/p18qqcvw3zt_1772138691987.csv,jaguar,NA,NA,NA,NA,NA,NA,NA,NA,NA,NA,NA,NA,NA,NA,NA,NA,2,Participants' ability to assume and make up words that they think they remember in the list due to their semantic associations.,Not confident.,"Quite difficult, each time I could only confidently remember around 10 words out of the 15.",N/A,N/A,FALSE
2565,survey-likert,35,25,643684,p18qqcvw3zt,NA,"{""Q0"":0}",recognition,Draw,unrelated,2,[0],NA,NA,/Users/martincz/GitHub/COGS119/group_wi26_false_recall/analysis/../data/raw_data/p18qqcvw3zt_1772138691987.csv,jaguar,NA,NA,NA,NA,NA,NA,NA,NA,NA,NA,NA,NA,NA,NA,NA,NA,0,Participants' ability to assume and make up words that they think they remember in the list due to their semantic associations.,Not confident.,"Quite difficult, each time I could only confidently remember around 10 words out of the 15.",N/A,N/A,FALSE
2345,survey-likert,36,26,646032,p18qqcvw3zt,NA,"{""Q0"":1}",recognition,Hike,weakly related,2,[0],NA,NA,/Users/martincz/GitHub/COGS119/group_wi26_false_recall/analysis/../data/raw_data/p18qqcvw3zt_1772138691987.csv,jaguar,NA,NA,NA,NA,NA,NA,NA,NA,NA,NA,NA,NA,NA,NA,NA,NA,1,Participants' ability to assume and make up words that they think they remember in the list due to their semantic associations.,Not confident.,"Quite difficult, each time I could only confidently remember around 10 words out of the 15.",N/A,N/A,FALSE
1876,survey-likert,37,27,647911,p18qqcvw3zt,NA,"{""Q0"":3}",recognition,Mountain,critical,2,[0],NA,NA,/Users/martincz/GitHub/COGS119/group_wi26_false_recall/analysis/../data/raw_data/p18qqcvw3zt_1772138691987.csv,jaguar,NA,NA,NA,NA,NA,NA,NA,NA,NA,NA,NA,NA,NA,NA,NA,NA,3,Participants' ability to assume and make up words that they think they remember in the list due to their semantic associations.,Not confident.,"Quite difficult, each time I could only confidently remember around 10 words out of the 15.",N/A,N/A,FALSE
1867,survey-likert,38,28,649780,p18qqcvw3zt,NA,"{""Q0"":0}",recognition,Car,unrelated,2,[0],NA,NA,/Users/martincz/GitHub/COGS119/group_wi26_false_recall/analysis/../data/raw_data/p18qqcvw3zt_1772138691987.csv,jaguar,NA,NA,NA,NA,NA,NA,NA,NA,NA,NA,NA,NA,NA,NA,NA,NA,0,Participants' ability to assume and make up words that they think they remember in the list due to their semantic associations.,Not confident.,"Quite difficult, each time I could only confidently remember around 10 words out of the 15.",N/A,N/A,FALSE
3860,survey-likert,39,29,653645,p18qqcvw3zt,NA,"{""Q0"":0}",recognition,Fast,unrelated,3,[0],NA,NA,/Users/martincz/GitHub/COGS119/group_wi26_false_recall/analysis/../data/raw_data/p18qqcvw3zt_1772138691987.csv,jaguar,NA,NA,NA,NA,NA,NA,NA,NA,NA,NA,NA,NA,NA,NA,NA,NA,0,Participants' ability to assume and make up words that they think they remember in the list due to their semantic associations.,Not confident.,"Quite difficult, each time I could only confidently remember around 10 words out of the 15.",N/A,N/A,FALSE
2606,survey-likert,40,30,656254,p18qqcvw3zt,NA,"{""Q0"":2}",recognition,Stitch,weakly related,3,[0],NA,NA,/Users/martincz/GitHub/COGS119/group_wi26_false_recall/analysis/../data/raw_data/p18qqcvw3zt_1772138691987.csv,jaguar,NA,NA,NA,NA,NA,NA,NA,NA,NA,NA,NA,NA,NA,NA,NA,NA,2,Participants' ability to assume and make up words that they think they remember in the list due to their semantic associations.,Not confident.,"Quite difficult, each time I could only confidently remember around 10 words out of the 15.",N/A,N/A,FALSE
2084,survey-likert,41,31,658340,p18qqcvw3zt,NA,"{""Q0"":2}",recognition,Thread,studied,3,[0],NA,NA,/Users/martincz/GitHub/COGS119/group_wi26_false_recall/analysis/../data/raw_data/p18qqcvw3zt_1772138691987.csv,jaguar,NA,NA,NA,NA,NA,NA,NA,NA,NA,NA,NA,NA,NA,NA,NA,NA,2,Participants' ability to assume and make up words that they think they remember in the list due to their semantic associations.,Not confident.,"Quite difficult, each time I could only confidently remember around 10 words out of the 15.",N/A,N/A,FALSE
2462,survey-likert,42,32,660805,p18qqcvw3zt,NA,"{""Q0"":3}",recognition,Needle,critical,3,[0],NA,NA,/Users/martincz/GitHub/COGS119/group_wi26_false_recall/analysis/../data/raw_data/p18qqcvw3zt_1772138691987.csv,jaguar,NA,NA,NA,NA,NA,NA,NA,NA,NA,NA,NA,NA,NA,NA,NA,NA,3,Participants' ability to assume and make up words that they think they remember in the list due to their semantic associations.,Not confident.,"Quite difficult, each time I could only confidently remember around 10 words out of the 15.",N/A,N/A,FALSE
5617,survey-likert,43,33,666425,p18qqcvw3zt,NA,"{""Q0"":0}",recognition,Stop,unrelated,3,[0],NA,NA,/Users/martincz/GitHub/COGS119/group_wi26_false_recall/analysis/../data/raw_data/p18qqcvw3zt_1772138691987.csv,jaguar,NA,NA,NA,NA,NA,NA,NA,NA,NA,NA,NA,NA,NA,NA,NA,NA,0,Participants' ability to assume and make up words that they think they remember in the list due to their semantic associations.,Not confident.,"Quite difficult, each time I could only confidently remember around 10 words out of the 15.",N/A,N/A,FALSE
2713,survey-likert,44,34,669141,p18qqcvw3zt,NA,"{""Q0"":2}",recognition,Splinter,weakly related,3,[0],NA,NA,/Users/martincz/GitHub/COGS119/group_wi26_false_recall/analysis/../data/raw_data/p18qqcvw3zt_1772138691987.csv,jaguar,NA,NA,NA,NA,NA,NA,NA,NA,NA,NA,NA,NA,NA,NA,NA,NA,2,Participants' ability to assume and make up words that they think they remember in the list due to their semantic associations.,Not confident.,"Quite difficult, each time I could only confidently remember around 10 words out of the 15.",N/A,N/A,FALSE
7410,survey-likert,45,35,676554,p18qqcvw3zt,NA,"{""Q0"":1}",recognition,Pin,studied,3,[0],NA,NA,/Users/martincz/GitHub/COGS119/group_wi26_false_recall/analysis/../data/raw_data/p18qqcvw3zt_1772138691987.csv,jaguar,NA,NA,NA,NA,NA,NA,NA,NA,NA,NA,NA,NA,NA,NA,NA,NA,1,Participants' ability to assume and make up words that they think they remember in the list due to their semantic associations.,Not confident.,"Quite difficult, each time I could only confidently remember around 10 words out of the 15.",N/A,N/A,FALSE
1993,survey-likert,46,36,678550,p18qqcvw3zt,NA,"{""Q0"":0}",recognition,Salty,weakly related,6,[0],NA,NA,/Users/martincz/GitHub/COGS119/group_wi26_false_recall/analysis/../data/raw_data/p18qqcvw3zt_1772138691987.csv,jaguar,NA,NA,NA,NA,NA,NA,NA,NA,NA,NA,NA,NA,NA,NA,NA,NA,0,Participants' ability to assume and make up words that they think they remember in the list due to their semantic associations.,Not confident.,"Quite difficult, each time I could only confidently remember around 10 words out of the 15.",N/A,N/A,FALSE
2825,survey-likert,47,37,681378,p18qqcvw3zt,NA,"{""Q0"":3}",recognition,Sour,studied,6,[0],NA,NA,/Users/martincz/GitHub/COGS119/group_wi26_false_recall/analysis/../data/raw_data/p18qqcvw3zt_1772138691987.csv,jaguar,NA,NA,NA,NA,NA,NA,NA,NA,NA,NA,NA,NA,NA,NA,NA,NA,3,Participants' ability to assume and make up words that they think they remember in the list due to their semantic associations.,Not confident.,"Quite difficult, each time I could only confidently remember around 10 words out of the 15.",N/A,N/A,FALSE
3442,survey-likert,48,38,684823,p18qqcvw3zt,NA,"{""Q0"":2}",recognition,Sweet,critical,6,[0],NA,NA,/Users/martincz/GitHub/COGS119/group_wi26_false_recall/analysis/../data/raw_data/p18qqcvw3zt_1772138691987.csv,jaguar,NA,NA,NA,NA,NA,NA,NA,NA,NA,NA,NA,NA,NA,NA,NA,NA,2,Participants' ability to assume and make up words that they think they remember in the list due to their semantic associations.,Not confident.,"Quite difficult, each time I could only confidently remember around 10 words out of the 15.",N/A,N/A,FALSE
1922,survey-likert,49,39,686748,p18qqcvw3zt,NA,"{""Q0"":2}",recognition,Sugar,studied,6,[0],NA,NA,/Users/martincz/GitHub/COGS119/group_wi26_false_recall/analysis/../data/raw_data/p18qqcvw3zt_1772138691987.csv,jaguar,NA,NA,NA,NA,NA,NA,NA,NA,NA,NA,NA,NA,NA,NA,NA,NA,2,Participants' ability to assume and make up words that they think they remember in the list due to their semantic associations.,Not confident.,"Quite difficult, each time I could only confidently remember around 10 words out of the 15.",N/A,N/A,FALSE
1551,survey-likert,50,40,688302,p18qqcvw3zt,NA,"{""Q0"":0}",recognition,Ghost,unrelated,6,[0],NA,NA,/Users/martincz/GitHub/COGS119/group_wi26_false_recall/analysis/../data/raw_data/p18qqcvw3zt_1772138691987.csv,jaguar,NA,NA,NA,NA,NA,NA,NA,NA,NA,NA,NA,NA,NA,NA,NA,NA,0,Participants' ability to assume and make up words that they think they remember in the list due to their semantic associations.,Not confident.,"Quite difficult, each time I could only confidently remember around 10 words out of the 15.",N/A,N/A,FALSE
1529,survey-likert,51,41,689834,p18qqcvw3zt,NA,"{""Q0"":0}",recognition,Cherry,weakly related,6,[0],NA,NA,/Users/martincz/GitHub/COGS119/group_wi26_false_recall/analysis/../data/raw_data/p18qqcvw3zt_1772138691987.csv,jaguar,NA,NA,NA,NA,NA,NA,NA,NA,NA,NA,NA,NA,NA,NA,NA,NA,0,Participants' ability to assume and make up words that they think they remember in the list due to their semantic associations.,Not confident.,"Quite difficult, each time I could only confidently remember around 10 words out of the 15.",N/A,N/A,FALSE
3331,survey-likert,52,42,693168,p18qqcvw3zt,NA,"{""Q0"":0}",recognition,Door,unrelated,6,[0],NA,NA,/Users/martincz/GitHub/COGS119/group_wi26_false_recall/analysis/../data/raw_data/p18qqcvw3zt_1772138691987.csv,jaguar,NA,NA,NA,NA,NA,NA,NA,NA,NA,NA,NA,NA,NA,NA,NA,NA,0,Participants' ability to assume and make up words that they think they remember in the list due to their semantic associations.,Not confident.,"Quite difficult, each time I could only confidently remember around 10 words out of the 15.",N/A,N/A,FALSE
1402,survey-likert,53,43,694573,p18qqcvw3zt,NA,"{""Q0"":0}",recognition,Floor,weakly related,1,[0],NA,NA,/Users/martincz/GitHub/COGS119/group_wi26_false_recall/analysis/../data/raw_data/p18qqcvw3zt_1772138691987.csv,jaguar,NA,NA,NA,NA,NA,NA,NA,NA,NA,NA,NA,NA,NA,NA,NA,NA,0,Participants' ability to assume and make up words that they think they remember in the list due to their semantic associations.,Not confident.,"Quite difficult, each time I could only confidently remember around 10 words out of the 15.",N/A,N/A,FALSE
2693,survey-likert,54,44,697268,p18qqcvw3zt,NA,"{""Q0"":3}",recognition,Chair,critical,1,[0],NA,NA,/Users/martincz/GitHub/COGS119/group_wi26_false_recall/analysis/../data/raw_data/p18qqcvw3zt_1772138691987.csv,jaguar,NA,NA,NA,NA,NA,NA,NA,NA,NA,NA,NA,NA,NA,NA,NA,NA,3,Participants' ability to assume and make up words that they think they remember in the list due to their semantic associations.,Not confident.,"Quite difficult, each time I could only confidently remember around 10 words out of the 15.",N/A,N/A,FALSE
2803,survey-likert,55,45,700075,p18qqcvw3zt,NA,"{""Q0"":0}",recognition,Ball,unrelated,1,[0],NA,NA,/Users/martincz/GitHub/COGS119/group_wi26_false_recall/analysis/../data/raw_data/p18qqcvw3zt_1772138691987.csv,jaguar,NA,NA,NA,NA,NA,NA,NA,NA,NA,NA,NA,NA,NA,NA,NA,NA,0,Participants' ability to assume and make up words that they think they remember in the list due to their semantic associations.,Not confident.,"Quite difficult, each time I could only confidently remember around 10 words out of the 15.",N/A,N/A,FALSE
2173,survey-likert,56,46,702257,p18qqcvw3zt,NA,"{""Q0"":2}",recognition,Cushion,weakly related,1,[0],NA,NA,/Users/martincz/GitHub/COGS119/group_wi26_false_recall/analysis/../data/raw_data/p18qqcvw3zt_1772138691987.csv,jaguar,NA,NA,NA,NA,NA,NA,NA,NA,NA,NA,NA,NA,NA,NA,NA,NA,2,Participants' ability to assume and make up words that they think they remember in the list due to their semantic associations.,Not confident.,"Quite difficult, each time I could only confidently remember around 10 words out of the 15.",N/A,N/A,FALSE
1734,survey-likert,57,47,703994,p18qqcvw3zt,NA,"{""Q0"":3}",recognition,Couch,studied,1,[0],NA,NA,/Users/martincz/GitHub/COGS119/group_wi26_false_recall/analysis/../data/raw_data/p18qqcvw3zt_1772138691987.csv,jaguar,NA,NA,NA,NA,NA,NA,NA,NA,NA,NA,NA,NA,NA,NA,NA,NA,3,Participants' ability to assume and make up words that they think they remember in the list due to their semantic associations.,Not confident.,"Quite difficult, each time I could only confidently remember around 10 words out of the 15.",N/A,N/A,FALSE
1523,survey-likert,58,48,705520,p18qqcvw3zt,NA,"{""Q0"":3}",recognition,Table,studied,1,[0],NA,NA,/Users/martincz/GitHub/COGS119/group_wi26_false_recall/analysis/../data/raw_data/p18qqcvw3zt_1772138691987.csv,jaguar,NA,NA,NA,NA,NA,NA,NA,NA,NA,NA,NA,NA,NA,NA,NA,NA,3,Participants' ability to assume and make up words that they think they remember in the list due to their semantic associations.,Not confident.,"Quite difficult, each time I could only confidently remember around 10 words out of the 15.",N/A,N/A,FALSE
2525,survey-likert,59,49,708047,p18qqcvw3zt,NA,"{""Q0"":0}",recognition,Shoe,unrelated,1,[0],NA,NA,/Users/martincz/GitHub/COGS119/group_wi26_false_recall/analysis/../data/raw_data/p18qqcvw3zt_1772138691987.csv,jaguar,NA,NA,NA,NA,NA,NA,NA,NA,NA,NA,NA,NA,NA,NA,NA,NA,0,Participants' ability to assume and make up words that they think they remember in the list due to their semantic associations.,Not confident.,"Quite difficult, each time I could only confidently remember around 10 words out of the 15.",N/A,N/A,FALSE
1982,html-keyboard-response,62,50,748328,p18qqcvw3zt,<h1>Rough</h1>,s,speed_game,Rough,NA,NA,NA,n,FALSE,/Users/martincz/GitHub/COGS119/group_wi26_false_recall/analysis/../data/raw_data/p18qqcvw3zt_1772138691987.csv,jaguar,NA,NA,NA,NA,NA,NA,NA,NA,NA,NA,NA,NA,NA,NA,NA,NA,NA,Participants' ability to assume and make up words that they think they remember in the list due to their semantic associations.,Not confident.,"Quite difficult, each time I could only confidently remember around 10 words out of the 15.",N/A,N/A,FALSE
9117,html-keyboard-response,64,51,758256,p18qqcvw3zt,<h1>Tired</h1>,s,speed_game,Tired,NA,NA,NA,s,TRUE,/Users/martincz/GitHub/COGS119/group_wi26_false_recall/analysis/../data/raw_data/p18qqcvw3zt_1772138691987.csv,jaguar,NA,NA,NA,NA,NA,NA,NA,NA,NA,NA,NA,NA,NA,NA,NA,NA,NA,Participants' ability to assume and make up words that they think they remember in the list due to their semantic associations.,Not confident.,"Quite difficult, each time I could only confidently remember around 10 words out of the 15.",N/A,N/A,FALSE
707,html-keyboard-response,66,52,759769,p18qqcvw3zt,<h1>Smooth</h1>,s,speed_game,Smooth,NA,NA,NA,s,TRUE,/Users/martincz/GitHub/COGS119/group_wi26_false_recall/analysis/../data/raw_data/p18qqcvw3zt_1772138691987.csv,jaguar,NA,NA,NA,NA,NA,NA,NA,NA,NA,NA,NA,NA,NA,NA,NA,NA,NA,Participants' ability to assume and make up words that they think they remember in the list due to their semantic associations.,Not confident.,"Quite difficult, each time I could only confidently remember around 10 words out of the 15.",N/A,N/A,FALSE
921,html-keyboard-response,68,53,761506,p18qqcvw3zt,<h1>Table</h1>,s,speed_game,Table,NA,NA,NA,s,TRUE,/Users/martincz/GitHub/COGS119/group_wi26_false_recall/analysis/../data/raw_data/p18qqcvw3zt_1772138691987.csv,jaguar,NA,NA,NA,NA,NA,NA,NA,NA,NA,NA,NA,NA,NA,NA,NA,NA,NA,Participants' ability to assume and make up words that they think they remember in the list due to their semantic associations.,Not confident.,"Quite difficult, each time I could only confidently remember around 10 words out of the 15.",N/A,N/A,FALSE
662,html-keyboard-response,70,54,762982,p18qqcvw3zt,<h1>Couch</h1>,s,speed_game,Couch,NA,NA,NA,s,TRUE,/Users/martincz/GitHub/COGS119/group_wi26_false_recall/analysis/../data/raw_data/p18qqcvw3zt_1772138691987.csv,jaguar,NA,NA,NA,NA,NA,NA,NA,NA,NA,NA,NA,NA,NA,NA,NA,NA,NA,Participants' ability to assume and make up words that they think they remember in the list due to their semantic associations.,Not confident.,"Quite difficult, each time I could only confidently remember around 10 words out of the 15.",N/A,N/A,FALSE
614,html-keyboard-response,72,55,764412,p18qqcvw3zt,<h1>Mountain</h1>,s,speed_game,Mountain,NA,NA,NA,n,FALSE,/Users/martincz/GitHub/COGS119/group_wi26_false_recall/analysis/../data/raw_data/p18qqcvw3zt_1772138691987.csv,jaguar,NA,NA,NA,NA,NA,NA,NA,NA,NA,NA,NA,NA,NA,NA,NA,NA,NA,Participants' ability to assume and make up words that they think they remember in the list due to their semantic associations.,Not confident.,"Quite difficult, each time I could only confidently remember around 10 words out of the 15.",N/A,N/A,FALSE
2062,html-keyboard-response,74,56,767281,p18qqcvw3zt,<h1>Needle</h1>,s,speed_game,Needle,NA,NA,NA,n,FALSE,/Users/martincz/GitHub/COGS119/group_wi26_false_recall/analysis/../data/raw_data/p18qqcvw3zt_1772138691987.csv,jaguar,NA,NA,NA,NA,NA,NA,NA,NA,NA,NA,NA,NA,NA,NA,NA,NA,NA,Participants' ability to assume and make up words that they think they remember in the list due to their semantic associations.,Not confident.,"Quite difficult, each time I could only confidently remember around 10 words out of the 15.",N/A,N/A,FALSE
4284,html-keyboard-response,76,57,772379,p18qqcvw3zt,<h1>Bed</h1>,s,speed_game,Bed,NA,NA,NA,s,TRUE,/Users/martincz/GitHub/COGS119/group_wi26_false_recall/analysis/../data/raw_data/p18qqcvw3zt_1772138691987.csv,jaguar,NA,NA,NA,NA,NA,NA,NA,NA,NA,NA,NA,NA,NA,NA,NA,NA,NA,Participants' ability to assume and make up words that they think they remember in the list due to their semantic associations.,Not confident.,"Quite difficult, each time I could only confidently remember around 10 words out of the 15.",N/A,N/A,FALSE
