"success","rt","trial_type","trial_index","plugin_version","time_elapsed","random_id","stimulus","response","task","word","condition","list","question_order","correct_answer","correct"
"true","14498","fullscreen","0","2.1.0","15506","pbzttx8g7pb","","","","","","","","",""
"","2307","html-keyboard-response","1","2.0.0","17816","pbzttx8g7pb","Welcome to the False Recall experiment. <p>Press any key to begin.</p>"," ","","","","","","",""
"","4284","survey-text","2","2.0.0","22105","pbzttx8g7pb","","{""participant_id"":""Manatee""}","","","","","","",""
"","4542","html-keyboard-response","3","2.0.0","26648","pbzttx8g7pb","<p>Listen to the following words. Do your best to memorize as many words as accurately as possible.<p>
      <p>The first trial will begin after this screen<p>
        <p> Press any key to continue<p> 
   "," ","","","","","","",""
"","null","audio-keyboard-response","4","2.1.1","52345","pbzttx8g7pb","stimuli/Cogs 119 List 3.wav","null","","","","","","",""
"","54802","survey-text","5","2.0.0","108155","pbzttx8g7pb","","{""Q0"":""Knitting"",""Q1"":""Clothe"",""Q2"":""Syringe"",""Q3"":""Needle"",""Q4"":""Sharp "",""Q5"":""Point"",""Q6"":""Sewing"",""Q7"":"""",""Q8"":"""",""Q9"":"""",""Q10"":"""",""Q11"":"""",""Q12"":"""",""Q13"":"""",""Q14"":""""}","free_recall","","","","","",""
"","null","audio-keyboard-response","6","2.1.1","134994","pbzttx8g7pb","stimuli/Cogs 119 List 4.wav","null","","","","","","",""
"","51852","survey-text","7","2.0.0","187854","pbzttx8g7pb","","{""Q0"":""Sand"",""Q1"":""Ground"",""Q2"":""Gravel"",""Q3"":""Rough"",""Q4"":""Smooth"",""Q5"":""Tough"",""Q6"":""Roads"",""Q7"":""Sandpaper"",""Q8"":"""",""Q9"":"""",""Q10"":"""",""Q11"":"""",""Q12"":"""",""Q13"":"""",""Q14"":""""}","free_recall","","","","","",""
"","null","audio-keyboard-response","8","2.1.1","213513","pbzttx8g7pb","stimuli/Cogs 119 List 5.wav","null","","","","","","",""
"","95984","survey-text","9","2.0.0","310506","pbzttx8g7pb","","{""Q0"":""Yawn"",""Q1"":""Peace"",""Q2"":""Tired"",""Q3"":""Dream"",""Q4"":""Drowsy"",""Q5"":""Sleep"",""Q6"":""Rest"",""Q7"":""Snore"",""Q8"":""Nap"",""Q9"":""Slumber"",""Q10"":"""",""Q11"":"""",""Q12"":"""",""Q13"":"""",""Q14"":""""}","free_recall","","","","","",""
"","null","audio-keyboard-response","10","2.1.1","336360","pbzttx8g7pb","stimuli/Cogs 119 List 2.wav","null","","","","","","",""
"","67038","survey-text","11","2.0.0","404404","pbzttx8g7pb","","{""Q0"":""Steep"",""Q1"":""Ski"",""Q2"":""Ranger"",""Q3"":""Bike"",""Q4"":""Glacier"",""Q5"":""Peak"",""Q6"":""Goat"",""Q7"":""Climb"",""Q8"":""Summit"",""Q9"":"""",""Q10"":"""",""Q11"":"""",""Q12"":"""",""Q13"":"""",""Q14"":""""}","free_recall","","","","","",""
"","null","audio-keyboard-response","12","2.1.1","430321","pbzttx8g7pb","stimuli/Cogs 119 List 6.wav","null","","","","","","",""
"","73310","survey-text","13","2.0.0","504637","pbzttx8g7pb","","{""Q0"":""Pie"",""Q1"":""Cake"",""Q2"":""Chocolate"",""Q3"":""Heart"",""Q4"":""Soda"",""Q5"":""Sour"",""Q6"":""Candy"",""Q7"":""Tart"",""Q8"":""Sweet"",""Q9"":""Sugary"",""Q10"":"""",""Q11"":"""",""Q12"":"""",""Q13"":"""",""Q14"":""""}","free_recall","","","","","",""
"","null","audio-keyboard-response","14","2.1.1","530399","pbzttx8g7pb","stimuli/Cogs 119 List 1.wav","null","","","","","","",""
"","78665","survey-text","15","2.0.0","610070","pbzttx8g7pb","","{""Q0"":""Bench"",""Q1"":""Walking"",""Q2"":""Table"",""Q3"":""Chair"",""Q4"":""Legs"",""Q5"":""Wood"",""Q6"":""Sitting"",""Q7"":""Desk"",""Q8"":""Sofa"",""Q9"":""Bench"",""Q10"":"""",""Q11"":"""",""Q12"":"""",""Q13"":"""",""Q14"":""""}","free_recall","","","","","",""
"","21358","html-keyboard-response","16","2.0.0","631429","pbzttx8g7pb","<p>You will now receive another test.<p> 
      <p>Here you will be shown a series of words that you may have seen previously.<p> 
      <p>Your task is to rate your confidence of seeing these words on a 4 point scale<p>
      <p>Definitely new<p> 
      <p>Maybe new<p>
      <p>Maybe seen before<p>
      <p>Definitely seen before<p>
      <p>Press any key to continue<p> 
   "," ","","","","","","",""
"","3703","survey-likert","17","2.0.0","635136","pbzttx8g7pb","","{""Q0"":3}","recognition","Thread","studied","3","[0]","",""
"","2064","survey-likert","18","2.0.0","637202","pbzttx8g7pb","","{""Q0"":3}","recognition","Needle","critical","3","[0]","",""
"","1598","survey-likert","19","2.0.0","638802","pbzttx8g7pb","","{""Q0"":3}","recognition","Stitch","weakly related","3","[0]","",""
"","3264","survey-likert","20","2.0.0","642069","pbzttx8g7pb","","{""Q0"":2}","recognition","Pin","studied","3","[0]","",""
"","3897","survey-likert","21","2.0.0","645968","pbzttx8g7pb","","{""Q0"":1}","recognition","Fast","unrelated","3","[0]","",""
"","2265","survey-likert","22","2.0.0","648235","pbzttx8g7pb","","{""Q0"":1}","recognition","Splinter","weakly related","3","[0]","",""
"","2348","survey-likert","23","2.0.0","650585","pbzttx8g7pb","","{""Q0"":1}","recognition","Stop","unrelated","3","[0]","",""
"","1698","survey-likert","24","2.0.0","652286","pbzttx8g7pb","","{""Q0"":2}","recognition","Touch","studied","4","[0]","",""
"","1764","survey-likert","25","2.0.0","654052","pbzttx8g7pb","","{""Q0"":3}","recognition","Rough","critical","4","[0]","",""
"","2881","survey-likert","26","2.0.0","656935","pbzttx8g7pb","","{""Q0"":1}","recognition","Key","unrelated","4","[0]","",""
"","3631","survey-likert","27","2.0.0","660568","pbzttx8g7pb","","{""Q0"":0}","recognition","Project","unrelated","4","[0]","",""
"","2465","survey-likert","28","2.0.0","663035","pbzttx8g7pb","","{""Q0"":0}","recognition","Chalk","weakly related","4","[0]","",""
"","1948","survey-likert","29","2.0.0","664985","pbzttx8g7pb","","{""Q0"":3}","recognition","Smooth","studied","4","[0]","",""
"","2680","survey-likert","30","2.0.0","667668","pbzttx8g7pb","","{""Q0"":1}","recognition","Spike","weakly related","4","[0]","",""
"","2198","survey-likert","31","2.0.0","669868","pbzttx8g7pb","","{""Q0"":3}","recognition","Tired","studied","5","[0]","",""
"","1864","survey-likert","32","2.0.0","671735","pbzttx8g7pb","","{""Q0"":0}","recognition","Coma","weakly related","5","[0]","",""
"","1731","survey-likert","33","2.0.0","673468","pbzttx8g7pb","","{""Q0"":0}","recognition","Fish","unrelated","5","[0]","",""
"","1998","survey-likert","34","2.0.0","675468","pbzttx8g7pb","","{""Q0"":3}","recognition","Bed","studied","5","[0]","",""
"","4315","survey-likert","35","2.0.0","679785","pbzttx8g7pb","","{""Q0"":2}","recognition","Calm","weakly related","5","[0]","",""
"","2698","survey-likert","36","2.0.0","682485","pbzttx8g7pb","","{""Q0"":0}","recognition","Chess","unrelated","5","[0]","",""
"","2148","survey-likert","37","2.0.0","684635","pbzttx8g7pb","","{""Q0"":3}","recognition","Sleep","critical","5","[0]","",""
"","3831","survey-likert","38","2.0.0","688468","pbzttx8g7pb","","{""Q0"":1}","recognition","Draw","unrelated","2","[0]","",""
"","2664","survey-likert","39","2.0.0","691135","pbzttx8g7pb","","{""Q0"":2}","recognition","Hill","studied","2","[0]","",""
"","3215","survey-likert","40","2.0.0","694352","pbzttx8g7pb","","{""Q0"":0}","recognition","Car","unrelated","2","[0]","",""
"","3498","survey-likert","41","2.0.0","697852","pbzttx8g7pb","","{""Q0"":3}","recognition","Peak","studied","2","[0]","",""
"","3131","survey-likert","42","2.0.0","700985","pbzttx8g7pb","","{""Q0"":2}","recognition","Hike","weakly related","2","[0]","",""
"","7398","survey-likert","43","2.0.0","708385","pbzttx8g7pb","","{""Q0"":3}","recognition","Snow","weakly related","2","[0]","",""
"","1998","survey-likert","44","2.0.0","710385","pbzttx8g7pb","","{""Q0"":2}","recognition","Mountain","critical","2","[0]","",""
"","2281","survey-likert","45","2.0.0","712668","pbzttx8g7pb","","{""Q0"":3}","recognition","Sweet","critical","6","[0]","",""
"","3248","survey-likert","46","2.0.0","715918","pbzttx8g7pb","","{""Q0"":1}","recognition","Salty","weakly related","6","[0]","",""
"","2798","survey-likert","47","2.0.0","718718","pbzttx8g7pb","","{""Q0"":0}","recognition","Door","unrelated","6","[0]","",""
"","1881","survey-likert","48","2.0.0","720602","pbzttx8g7pb","","{""Q0"":1}","recognition","Sugar","studied","6","[0]","",""
"","2048","survey-likert","49","2.0.0","722652","pbzttx8g7pb","","{""Q0"":3}","recognition","Sour","studied","6","[0]","",""
"","2030","survey-likert","50","2.0.0","724685","pbzttx8g7pb","","{""Q0"":0}","recognition","Cherry","weakly related","6","[0]","",""
"","2948","survey-likert","51","2.0.0","727635","pbzttx8g7pb","","{""Q0"":1}","recognition","Ghost","unrelated","6","[0]","",""
"","3081","survey-likert","52","2.0.0","730718","pbzttx8g7pb","","{""Q0"":0}","recognition","Click: Definitely New","attention_check","none","[0]","",""
"","3431","survey-likert","53","2.0.0","734152","pbzttx8g7pb","","{""Q0"":3}","recognition","Chair","critical","1","[0]","",""
"","2764","survey-likert","54","2.0.0","736918","pbzttx8g7pb","","{""Q0"":3}","recognition","Cushion","weakly related","1","[0]","",""
"","1948","survey-likert","55","2.0.0","738868","pbzttx8g7pb","","{""Q0"":3}","recognition","Couch","studied","1","[0]","",""
"","3081","survey-likert","56","2.0.0","741952","pbzttx8g7pb","","{""Q0"":1}","recognition","Shoe","unrelated","1","[0]","",""
"","1931","survey-likert","57","2.0.0","743885","pbzttx8g7pb","","{""Q0"":1}","recognition","Ball","unrelated","1","[0]","",""
"","1598","survey-likert","58","2.0.0","745485","pbzttx8g7pb","","{""Q0"":3}","recognition","Table","studied","1","[0]","",""
"","2131","survey-likert","59","2.0.0","747618","pbzttx8g7pb","","{""Q0"":1}","recognition","Floor","weakly related","1","[0]","",""
"","11280","survey-likert","60","2.0.0","758902","pbzttx8g7pb","","{""Q0"":0,""Q1"":0,""Q2"":0,""Q3"":0,""Q4"":0,""Q5"":0}","","","","","[0,1,2,3,4,5]","",""
"","8085","html-keyboard-response","61","2.0.0","766988","pbzttx8g7pb","
    <h2>Speed Memory Game</h2>
    <p>Press <strong>S</strong> if the word was studied.</p>
    <p>Press <strong>N</strong> if it was NOT studied.</p>
    <p>Respond as quickly as possible. (Please note it may be case sensitive)</p>
    <p>Press any key to begin.</p>
  "," ","","","","","","",""
"","886","html-keyboard-response","62","2.0.0","767876","pbzttx8g7pb","<h1>Pin</h1>","s","speed_game","Pin","","","","s","true"
"","null","html-keyboard-response","63","2.0.0","768679","pbzttx8g7pb","<h2 style='color:green;'>Correct! </h2>","null","","","","","","",""
"","839","html-keyboard-response","64","2.0.0","769520","pbzttx8g7pb","<h1>Peak</h1>","s","speed_game","Peak","","","","s","true"
"","null","html-keyboard-response","65","2.0.0","770323","pbzttx8g7pb","<h2 style='color:green;'>Correct! </h2>","null","","","","","","",""
"","853","html-keyboard-response","66","2.0.0","771178","pbzttx8g7pb","<h1>Hill</h1>","n","speed_game","Hill","","","","s","false"
"","null","html-keyboard-response","67","2.0.0","771980","pbzttx8g7pb","<h2 style='color:red;'>Wrong </h2>","null","","","","","","",""
"","994","html-keyboard-response","68","2.0.0","772976","pbzttx8g7pb","<h1>Sleep</h1>","s","speed_game","Sleep","","","","n","false"
"","null","html-keyboard-response","69","2.0.0","773778","pbzttx8g7pb","<h2 style='color:red;'>Wrong </h2>","null","","","","","","",""
"","1257","html-keyboard-response","70","2.0.0","775036","pbzttx8g7pb","<h1>Couch</h1>","s","speed_game","Couch","","","","s","true"
"","null","html-keyboard-response","71","2.0.0","775839","pbzttx8g7pb","<h2 style='color:green;'>Correct! </h2>","null","","","","","","",""
"","1225","html-keyboard-response","72","2.0.0","777065","pbzttx8g7pb","<h1>Smooth</h1>","s","speed_game","Smooth","","","","s","true"
"","null","html-keyboard-response","73","2.0.0","777867","pbzttx8g7pb","<h2 style='color:green;'>Correct! </h2>","null","","","","","","",""
"","1262","html-keyboard-response","74","2.0.0","779131","pbzttx8g7pb","<h1>Bed</h1>","s","speed_game","Bed","","","","s","true"
"","null","html-keyboard-response","75","2.0.0","779934","pbzttx8g7pb","<h2 style='color:green;'>Correct! </h2>","null","","","","","","",""
"","785","html-keyboard-response","76","2.0.0","780720","pbzttx8g7pb","<h1>Click N</h1>","n","speed_attention_check","","","","","","true"
"","997","html-keyboard-response","77","2.0.0","781718","pbzttx8g7pb","<h1>Table</h1>","s","speed_game","Table","","","","s","true"
"","null","html-keyboard-response","78","2.0.0","782521","pbzttx8g7pb","<h2 style='color:green;'>Correct! </h2>","null","","","","","","",""
"","717","html-keyboard-response","79","2.0.0","783240","pbzttx8g7pb","<h1>Needle</h1>","s","speed_game","Needle","","","","n","false"
"","null","html-keyboard-response","80","2.0.0","784042","pbzttx8g7pb","<h2 style='color:red;'>Wrong </h2>","null","","","","","","",""
"","944","html-keyboard-response","81","2.0.0","784987","pbzttx8g7pb","<h1>Mountain</h1>","s","speed_game","Mountain","","","","n","false"
"","null","html-keyboard-response","82","2.0.0","785790","pbzttx8g7pb","<h2 style='color:red;'>Wrong </h2>","null","","","","","","",""
"","1189","html-keyboard-response","83","2.0.0","786981","pbzttx8g7pb","<h1>Sour</h1>","s","speed_game","Sour","","","","s","true"
"","null","html-keyboard-response","84","2.0.0","787784","pbzttx8g7pb","<h2 style='color:green;'>Correct! </h2>","null","","","","","","",""
"","724","html-keyboard-response","85","2.0.0","788509","pbzttx8g7pb","<h1>Thread</h1>","s","speed_game","Thread","","","","s","true"
"","null","html-keyboard-response","86","2.0.0","789311","pbzttx8g7pb","<h2 style='color:green;'>Correct! </h2>","null","","","","","","",""
"","990","html-keyboard-response","87","2.0.0","790303","pbzttx8g7pb","<h1>Touch</h1>","n","speed_game","Touch","","","","s","false"
"","null","html-keyboard-response","88","2.0.0","791106","pbzttx8g7pb","<h2 style='color:red;'>Wrong </h2>","null","","","","","","",""
"","795","html-keyboard-response","89","2.0.0","791901","pbzttx8g7pb","<h1>Sweet</h1>","s","speed_game","Sweet","","","","n","false"
"","null","html-keyboard-response","90","2.0.0","792703","pbzttx8g7pb","<h2 style='color:red;'>Wrong </h2>","null","","","","","","",""
"","2801","html-keyboard-response","91","2.0.0","795506","pbzttx8g7pb","<h1>Chair</h1>","s","speed_game","Chair","","","","n","false"
"","null","html-keyboard-response","92","2.0.0","796308","pbzttx8g7pb","<h2 style='color:red;'>Wrong </h2>","null","","","","","","",""
"","4093","html-keyboard-response","93","2.0.0","800403","pbzttx8g7pb","<h1>Sugar</h1>","n","speed_game","Sugar","","","","s","false"
"","null","html-keyboard-response","94","2.0.0","801205","pbzttx8g7pb","<h2 style='color:red;'>Wrong </h2>","null","","","","","","",""
"","955","html-keyboard-response","95","2.0.0","802161","pbzttx8g7pb","<h1>Tired</h1>","s","speed_game","Tired","","","","s","true"
"","null","html-keyboard-response","96","2.0.0","802964","pbzttx8g7pb","<h2 style='color:green;'>Correct! </h2>","null","","","","","","",""
"","1606","html-keyboard-response","97","2.0.0","804571","pbzttx8g7pb","<h1>Rough</h1>","s","speed_game","Rough","","","","n","false"
"","null","html-keyboard-response","98","2.0.0","805374","pbzttx8g7pb","<h2 style='color:red;'>Wrong </h2>","null","","","","","","",""
"","2892","html-keyboard-response","99","2.0.0","808268","pbzttx8g7pb","
      <h2>Game Results</h2>
      <p>Accuracy: 50%</p>
      <p>Average RT: 1285 ms</p>
      <p>Press any key to continue.</p>
    "," ","","","","","","",""
"","129708","survey-text","100","2.0.0","937984","pbzttx8g7pb","","{""Q0"":""This experiment was potentially about working memory and seeing overall how many words we are able to recall right after hearing them."",""Q1"":""I felt okay, my brain is a little overloaded in general due to midterms so I did not feel like I was retaining as much as I could potentially. "",""Q2"":""I found the tasks easy. They were explained well and very straight forward."",""Q3"":""I did not experience and technical issues."",""Q4"":""No, great job!! :)""}","","","","","","",""
