"success","rt","trial_type","trial_index","plugin_version","time_elapsed","random_id","stimulus","response","task","word","condition","list","question_order","correct_answer","correct"
"true","1185","fullscreen","0","2.1.0","2201","ppsv70gnnqr","","","","","","","","",""
"","1263","html-keyboard-response","1","2.0.0","3467","ppsv70gnnqr","Welcome to the False Recall experiment. <p>Press any key to begin.</p>","Enter","","","","","","",""
"","3027","survey-text","2","2.0.0","6497","ppsv70gnnqr","","{""participant_id"":""goose""}","","","","","","",""
"","5377","html-keyboard-response","3","2.0.0","11875","ppsv70gnnqr","<p>Listen to the following words. Do your best to memorize as many words as accurately as possible.<p>
      <p>The first trial will begin after this screen<p>
        <p> Press any key to continue<p> 
   ","Enter","","","","","","",""
"","null","audio-keyboard-response","4","2.1.1","37467","ppsv70gnnqr","stimuli/Cogs 119 List 1.wav","null","","","","","","",""
"","39618","survey-text","5","2.0.0","78101","ppsv70gnnqr","","{""Q0"":""sit"",""Q1"":""wood"",""Q2"":""table"",""Q3"":""seat"",""Q4"":""rocking"",""Q5"":"""",""Q6"":"""",""Q7"":"""",""Q8"":"""",""Q9"":"""",""Q10"":"""",""Q11"":"""",""Q12"":"""",""Q13"":"""",""Q14"":""""}","free_recall","","","","","",""
"","null","audio-keyboard-response","6","2.1.1","103824","ppsv70gnnqr","stimuli/Cogs 119 List 2.wav","null","","","","","","",""
"","71566","survey-text","7","2.0.0","176402","ppsv70gnnqr","","{""Q0"":""summit"",""Q1"":""ski"",""Q2"":""goat"",""Q3"":""peak"",""Q4"":""valley"",""Q5"":""mountain"",""Q6"":"""",""Q7"":"""",""Q8"":"""",""Q9"":"""",""Q10"":"""",""Q11"":"""",""Q12"":"""",""Q13"":"""",""Q14"":""""}","free_recall","","","","","",""
"","null","audio-keyboard-response","8","2.1.1","202784","ppsv70gnnqr","stimuli/Cogs 119 List 4.wav","null","","","","","","",""
"","32756","survey-text","9","2.0.0","236561","ppsv70gnnqr","","{""Q0"":""smooth"",""Q1"":""bumpy"",""Q2"":""road"",""Q3"":""gravel"",""Q4"":""riders"",""Q5"":""coase"",""Q6"":"""",""Q7"":"""",""Q8"":"""",""Q9"":"""",""Q10"":"""",""Q11"":"""",""Q12"":"""",""Q13"":"""",""Q14"":""""}","free_recall","","","","","",""
"","null","audio-keyboard-response","10","2.1.1","262384","ppsv70gnnqr","stimuli/Cogs 119 List 5.wav","null","","","","","","",""
"","27319","survey-text","11","2.0.0","290718","ppsv70gnnqr","","{""Q0"":""drowsy"",""Q1"":""snore"",""Q2"":""bed"",""Q3"":""rest"",""Q4"":""peace"",""Q5"":""yawn"",""Q6"":""nap"",""Q7"":"""",""Q8"":"""",""Q9"":"""",""Q10"":"""",""Q11"":"""",""Q12"":"""",""Q13"":"""",""Q14"":""""}","free_recall","","","","","",""
"","null","audio-keyboard-response","12","2.1.1","316522","ppsv70gnnqr","stimuli/Cogs 119 List 6.wav","null","","","","","","",""
"","31922","survey-text","13","2.0.0","349454","ppsv70gnnqr","","{""Q0"":""sour"",""Q1"":""bitter"",""Q2"":""candy"",""Q3"":""taste"",""Q4"":""chocolate"",""Q5"":""cake"",""Q6"":""heart"",""Q7"":""sugar"",""Q8"":"""",""Q9"":"""",""Q10"":"""",""Q11"":"""",""Q12"":"""",""Q13"":"""",""Q14"":""""}","free_recall","","","","","",""
"","null","audio-keyboard-response","14","2.1.1","374900","ppsv70gnnqr","stimuli/Cogs 119 List 3.wav","null","","","","","","",""
"","36579","survey-text","15","2.0.0","412485","ppsv70gnnqr","","{""Q0"":""knitting"",""Q1"":""thimble"",""Q2"":""injection"",""Q3"":""point"",""Q4"":""sharp"",""Q5"":""sewing"",""Q6"":""needle"",""Q7"":"""",""Q8"":"""",""Q9"":"""",""Q10"":"""",""Q11"":"""",""Q12"":"""",""Q13"":"""",""Q14"":""""}","free_recall","","","","","",""
"","4237","html-keyboard-response","16","2.0.0","416725","ppsv70gnnqr","<p>You will now receive another test.<p> 
      <p>Here you will be shown a series of words that you may have seen previously.<p> 
      <p>Your task is to rate your confidence of seeing these words on a 4 point scale<p>
      <p>Definitely new<p> 
      <p>Maybe new<p>
      <p>Maybe seen before<p>
      <p>Definitely seen before<p>
      <p>Press any key to continue<p> 
   ","Enter","","","","","","",""
"","2937","survey-likert","17","2.0.0","419668","ppsv70gnnqr","","{""Q0"":0}","recognition","Ball","unrelated","1","[0]","",""
"","2181","survey-likert","18","2.0.0","421851","ppsv70gnnqr","","{""Q0"":0}","recognition","Floor","weakly related","1","[0]","",""
"","2348","survey-likert","19","2.0.0","424201","ppsv70gnnqr","","{""Q0"":3}","recognition","Chair","critical","1","[0]","",""
"","1881","survey-likert","20","2.0.0","426084","ppsv70gnnqr","","{""Q0"":0}","recognition","Shoe","unrelated","1","[0]","",""
"","3149","survey-likert","21","2.0.0","429234","ppsv70gnnqr","","{""Q0"":3}","recognition","Table","studied","1","[0]","",""
"","2549","survey-likert","22","2.0.0","431784","ppsv70gnnqr","","{""Q0"":2}","recognition","Cushion","weakly related","1","[0]","",""
"","1532","survey-likert","23","2.0.0","433318","ppsv70gnnqr","","{""Q0"":3}","recognition","Couch","studied","1","[0]","",""
"","1531","survey-likert","24","2.0.0","434851","ppsv70gnnqr","","{""Q0"":3}","recognition","Mountain","critical","2","[0]","",""
"","2082","survey-likert","25","2.0.0","436934","ppsv70gnnqr","","{""Q0"":3}","recognition","Car","unrelated","2","[0]","",""
"","2716","survey-likert","26","2.0.0","439651","ppsv70gnnqr","","{""Q0"":3}","recognition","Hike","weakly related","2","[0]","",""
"","1898","survey-likert","27","2.0.0","441551","ppsv70gnnqr","","{""Q0"":3}","recognition","Hill","studied","2","[0]","",""
"","3349","survey-likert","28","2.0.0","444901","ppsv70gnnqr","","{""Q0"":1}","recognition","Snow","weakly related","2","[0]","",""
"","2182","survey-likert","29","2.0.0","447084","ppsv70gnnqr","","{""Q0"":3}","recognition","Peak","studied","2","[0]","",""
"","1932","survey-likert","30","2.0.0","449017","ppsv70gnnqr","","{""Q0"":1}","recognition","Draw","unrelated","2","[0]","",""
"","2049","survey-likert","31","2.0.0","451068","ppsv70gnnqr","","{""Q0"":3}","recognition","Smooth","studied","4","[0]","",""
"","1982","survey-likert","32","2.0.0","453051","ppsv70gnnqr","","{""Q0"":1}","recognition","Touch","studied","4","[0]","",""
"","2198","survey-likert","33","2.0.0","455251","ppsv70gnnqr","","{""Q0"":1}","recognition","Project","unrelated","4","[0]","",""
"","2082","survey-likert","34","2.0.0","457334","ppsv70gnnqr","","{""Q0"":1}","recognition","Spike","weakly related","4","[0]","",""
"","4365","survey-likert","35","2.0.0","461701","ppsv70gnnqr","","{""Q0"":1}","recognition","Chalk","weakly related","4","[0]","",""
"","1915","survey-likert","36","2.0.0","463618","ppsv70gnnqr","","{""Q0"":0}","recognition","Key","unrelated","4","[0]","",""
"","2281","survey-likert","37","2.0.0","465901","ppsv70gnnqr","","{""Q0"":3}","recognition","Rough","critical","4","[0]","",""
"","1632","survey-likert","38","2.0.0","467534","ppsv70gnnqr","","{""Q0"":0}","recognition","Coma","weakly related","5","[0]","",""
"","2548","survey-likert","39","2.0.0","470084","ppsv70gnnqr","","{""Q0"":2}","recognition","Tired","studied","5","[0]","",""
"","3615","survey-likert","40","2.0.0","473701","ppsv70gnnqr","","{""Q0"":1}","recognition","Calm","weakly related","5","[0]","",""
"","1566","survey-likert","41","2.0.0","475268","ppsv70gnnqr","","{""Q0"":3}","recognition","Bed","studied","5","[0]","",""
"","2765","survey-likert","42","2.0.0","478034","ppsv70gnnqr","","{""Q0"":0}","recognition","Fish","unrelated","5","[0]","",""
"","2032","survey-likert","43","2.0.0","480068","ppsv70gnnqr","","{""Q0"":3}","recognition","Sleep","critical","5","[0]","",""
"","2349","survey-likert","44","2.0.0","482418","ppsv70gnnqr","","{""Q0"":0}","recognition","Chess","unrelated","5","[0]","",""
"","1999","survey-likert","45","2.0.0","484418","ppsv70gnnqr","","{""Q0"":1}","recognition","Salty","weakly related","6","[0]","",""
"","3198","survey-likert","46","2.0.0","487618","ppsv70gnnqr","","{""Q0"":0}","recognition","Ghost","unrelated","6","[0]","",""
"","2166","survey-likert","47","2.0.0","489784","ppsv70gnnqr","","{""Q0"":3}","recognition","Sour","studied","6","[0]","",""
"","1532","survey-likert","48","2.0.0","491317","ppsv70gnnqr","","{""Q0"":3}","recognition","Cherry","weakly related","6","[0]","",""
"","1749","survey-likert","49","2.0.0","493068","ppsv70gnnqr","","{""Q0"":3}","recognition","Sweet","critical","6","[0]","",""
"","1382","survey-likert","50","2.0.0","494451","ppsv70gnnqr","","{""Q0"":3}","recognition","Sugar","studied","6","[0]","",""
"","1882","survey-likert","51","2.0.0","496334","ppsv70gnnqr","","{""Q0"":2}","recognition","Door","unrelated","6","[0]","",""
"","2599","survey-likert","52","2.0.0","498935","ppsv70gnnqr","","{""Q0"":0}","recognition","Click: Definitely New","attention_check","none","[0]","",""
"","1665","survey-likert","53","2.0.0","500601","ppsv70gnnqr","","{""Q0"":1}","recognition","Splinter","weakly related","3","[0]","",""
"","2348","survey-likert","54","2.0.0","502951","ppsv70gnnqr","","{""Q0"":2}","recognition","Pin","studied","3","[0]","",""
"","2182","survey-likert","55","2.0.0","505134","ppsv70gnnqr","","{""Q0"":1}","recognition","Stitch","weakly related","3","[0]","",""
"","1649","survey-likert","56","2.0.0","506784","ppsv70gnnqr","","{""Q0"":2}","recognition","Needle","critical","3","[0]","",""
"","2349","survey-likert","57","2.0.0","509134","ppsv70gnnqr","","{""Q0"":1}","recognition","Stop","unrelated","3","[0]","",""
"","2049","survey-likert","58","2.0.0","511184","ppsv70gnnqr","","{""Q0"":3}","recognition","Thread","studied","3","[0]","",""
"","1882","survey-likert","59","2.0.0","513068","ppsv70gnnqr","","{""Q0"":2}","recognition","Fast","unrelated","3","[0]","",""
"","22663","survey-likert","60","2.0.0","535735","ppsv70gnnqr","","{""Q0"":1,""Q1"":0,""Q2"":0,""Q3"":0,""Q4"":0,""Q5"":0}","","","","","[0,1,2,3,4,5]","",""
"","12551","html-keyboard-response","61","2.0.0","548287","ppsv70gnnqr","
    <h2>Speed Memory Game</h2>
    <p>Press <strong>S</strong> if the word was studied.</p>
    <p>Press <strong>N</strong> if it was NOT studied.</p>
    <p>Respond as quickly as possible. (Please note it may be case sensitive)</p>
    <p>Press any key to begin.</p>
  ","Enter","","","","","","",""
"","1203","html-keyboard-response","62","2.0.0","549492","ppsv70gnnqr","<h1>Chair</h1>","s","speed_game","Chair","","","","n","false"
"","null","html-keyboard-response","63","2.0.0","550296","ppsv70gnnqr","<h2 style='color:red;'>Wrong </h2>","null","","","","","","",""
"","1981","html-keyboard-response","64","2.0.0","552278","ppsv70gnnqr","<h1>Smooth</h1>","s","speed_game","Smooth","","","","s","true"
"","null","html-keyboard-response","65","2.0.0","553081","ppsv70gnnqr","<h2 style='color:green;'>Correct! </h2>","null","","","","","","",""
"","756","html-keyboard-response","66","2.0.0","553838","ppsv70gnnqr","<h1>Couch</h1>","s","speed_game","Couch","","","","s","true"
"","null","html-keyboard-response","67","2.0.0","554642","ppsv70gnnqr","<h2 style='color:green;'>Correct! </h2>","null","","","","","","",""
"","881","html-keyboard-response","68","2.0.0","555525","ppsv70gnnqr","<h1>Click N</h1>","n","speed_attention_check","","","","","","true"
"","1618","html-keyboard-response","69","2.0.0","557145","ppsv70gnnqr","<h1>Pin</h1>","n","speed_game","Pin","","","","s","false"
"","null","html-keyboard-response","70","2.0.0","557949","ppsv70gnnqr","<h2 style='color:red;'>Wrong </h2>","null","","","","","","",""
"","1367","html-keyboard-response","71","2.0.0","559317","ppsv70gnnqr","<h1>Touch</h1>","n","speed_game","Touch","","","","s","false"
"","null","html-keyboard-response","72","2.0.0","560120","ppsv70gnnqr","<h2 style='color:red;'>Wrong </h2>","null","","","","","","",""
"","696","html-keyboard-response","73","2.0.0","560817","ppsv70gnnqr","<h1>Sleep</h1>","s","speed_game","Sleep","","","","n","false"
"","null","html-keyboard-response","74","2.0.0","561620","ppsv70gnnqr","<h2 style='color:red;'>Wrong </h2>","null","","","","","","",""
"","1271","html-keyboard-response","75","2.0.0","562894","ppsv70gnnqr","<h1>Rough</h1>","s","speed_game","Rough","","","","n","false"
"","null","html-keyboard-response","76","2.0.0","563697","ppsv70gnnqr","<h2 style='color:red;'>Wrong </h2>","null","","","","","","",""
"","3134","html-keyboard-response","77","2.0.0","566834","ppsv70gnnqr","<h1>Bed</h1>","n","speed_game","Bed","","","","s","false"
"","null","html-keyboard-response","78","2.0.0","567637","ppsv70gnnqr","<h2 style='color:red;'>Wrong </h2>","null","","","","","","",""
"","925","html-keyboard-response","79","2.0.0","568564","ppsv70gnnqr","<h1>Peak</h1>","s","speed_game","Peak","","","","s","true"
"","null","html-keyboard-response","80","2.0.0","569368","ppsv70gnnqr","<h2 style='color:green;'>Correct! </h2>","null","","","","","","",""
"","774","html-keyboard-response","81","2.0.0","570143","ppsv70gnnqr","<h1>Mountain</h1>","s","speed_game","Mountain","","","","n","false"
"","null","html-keyboard-response","82","2.0.0","570947","ppsv70gnnqr","<h2 style='color:red;'>Wrong </h2>","null","","","","","","",""
"","1339","html-keyboard-response","83","2.0.0","572289","ppsv70gnnqr","<h1>Needle</h1>","s","speed_game","Needle","","","","n","false"
"","null","html-keyboard-response","84","2.0.0","573092","ppsv70gnnqr","<h2 style='color:red;'>Wrong </h2>","null","","","","","","",""
"","1058","html-keyboard-response","85","2.0.0","574153","ppsv70gnnqr","<h1>Tired</h1>","s","speed_game","Tired","","","","s","true"
"","null","html-keyboard-response","86","2.0.0","574956","ppsv70gnnqr","<h2 style='color:green;'>Correct! </h2>","null","","","","","","",""
"","1018","html-keyboard-response","87","2.0.0","575976","ppsv70gnnqr","<h1>Sweet</h1>","s","speed_game","Sweet","","","","n","false"
"","null","html-keyboard-response","88","2.0.0","576778","ppsv70gnnqr","<h2 style='color:red;'>Wrong </h2>","null","","","","","","",""
"","1060","html-keyboard-response","89","2.0.0","577840","ppsv70gnnqr","<h1>Table</h1>","n","speed_game","Table","","","","s","false"
"","null","html-keyboard-response","90","2.0.0","578642","ppsv70gnnqr","<h2 style='color:red;'>Wrong </h2>","null","","","","","","",""
"","852","html-keyboard-response","91","2.0.0","579495","ppsv70gnnqr","<h1>Sugar</h1>","s","speed_game","Sugar","","","","s","true"
"","null","html-keyboard-response","92","2.0.0","580297","ppsv70gnnqr","<h2 style='color:green;'>Correct! </h2>","null","","","","","","",""
"","689","html-keyboard-response","93","2.0.0","580987","ppsv70gnnqr","<h1>Sour</h1>","s","speed_game","Sour","","","","s","true"
"","null","html-keyboard-response","94","2.0.0","581789","ppsv70gnnqr","<h2 style='color:green;'>Correct! </h2>","null","","","","","","",""
"","791","html-keyboard-response","95","2.0.0","582582","ppsv70gnnqr","<h1>Hill</h1>","s","speed_game","Hill","","","","s","true"
"","null","html-keyboard-response","96","2.0.0","583385","ppsv70gnnqr","<h2 style='color:green;'>Correct! </h2>","null","","","","","","",""
"","826","html-keyboard-response","97","2.0.0","584211","ppsv70gnnqr","<h1>Thread</h1>","s","speed_game","Thread","","","","s","true"
"","null","html-keyboard-response","98","2.0.0","585014","ppsv70gnnqr","<h2 style='color:green;'>Correct! </h2>","null","","","","","","",""
"","1978","html-keyboard-response","99","2.0.0","586995","ppsv70gnnqr","
      <h2>Game Results</h2>
      <p>Accuracy: 44%</p>
      <p>Average RT: 1187 ms</p>
      <p>Press any key to continue.</p>
    "," ","","","","","","",""
"","36127","survey-text","100","2.0.0","623159","ppsv70gnnqr","","{""Q0"":""testing memory?"",""Q1"":""i felt bad about my memory"",""Q2"":""they weere okay"",""Q3"":""no issues"",""Q4"":""no""}","","","","","","",""
