"success","rt","trial_type","trial_index","plugin_version","time_elapsed","random_id","stimulus","response","task","word","condition","list","question_order","correct_answer","correct"
"true","5440","fullscreen","0","2.1.0","6470","pqbzw6y3v6d","","","","","","","","",""
"","2704","html-keyboard-response","1","2.0.0","9179","pqbzw6y3v6d","Welcome to the False Recall experiment. <p>Press any key to begin.</p>","Enter","","","","","","",""
"","3836","survey-text","2","2.0.0","13020","pqbzw6y3v6d","","{""participant_id"":""squirrel""}","","","","","","",""
"","5074","html-keyboard-response","3","2.0.0","18097","pqbzw6y3v6d","<p>Listen to the following words. Do your best to memorize as many words as accurately as possible.<p>
      <p>The first trial will begin after this screen<p>
        <p> Press any key to continue<p> 
   ","AudioVolumeUp","","","","","","",""
"","null","audio-keyboard-response","4","2.1.1","44876","pqbzw6y3v6d","stimuli/Cogs 119 List 6.wav","null","","","","","","",""
"","32346","survey-text","5","2.0.0","78238","pqbzw6y3v6d","","{""Q0"":""sour"",""Q1"":""candy"",""Q2"":""tart"",""Q3"":""cake"",""Q4"":""pie"",""Q5"":""sugar"",""Q6"":""honey"",""Q7"":"""",""Q8"":"""",""Q9"":"""",""Q10"":"""",""Q11"":"""",""Q12"":"""",""Q13"":"""",""Q14"":""""}","free_recall","","","","","",""
"","null","audio-keyboard-response","6","2.1.1","104082","pqbzw6y3v6d","stimuli/Cogs 119 List 1.wav","null","","","","","","",""
"","40794","survey-text","7","2.0.0","145893","pqbzw6y3v6d","","{""Q0"":""recliner"",""Q1"":""table"",""Q2"":""seat"",""Q3"":""sitting"",""Q4"":""cushion"",""Q5"":""rocking"",""Q6"":""bench"",""Q7"":""couch"",""Q8"":"""",""Q9"":"""",""Q10"":"""",""Q11"":"""",""Q12"":"""",""Q13"":"""",""Q14"":""""}","free_recall","","","","","",""
"","null","audio-keyboard-response","8","2.1.1","172471","pqbzw6y3v6d","stimuli/Cogs 119 List 4.wav","null","","","","","","",""
"","29308","survey-text","9","2.0.0","202804","pqbzw6y3v6d","","{""Q0"":""smooth"",""Q1"":""rugged"",""Q2"":""gravel"",""Q3"":""sand"",""Q4"":""riders"",""Q5"":""road"",""Q6"":""smooth"",""Q7"":""bumpy"",""Q8"":""coarse"",""Q9"":"""",""Q10"":"""",""Q11"":"""",""Q12"":"""",""Q13"":"""",""Q14"":""""}","free_recall","","","","","",""
"","null","audio-keyboard-response","10","2.1.1","228318","pqbzw6y3v6d","stimuli/Cogs 119 List 3.wav","null","","","","","","",""
"","46068","survey-text","11","2.0.0","275408","pqbzw6y3v6d","","{""Q0"":""knitting"",""Q1"":""hurt"",""Q2"":""injection"",""Q3"":""point"",""Q4"":""cloth"",""Q5"":""pin"",""Q6"":""haystack"",""Q7"":""thimble"",""Q8"":"""",""Q9"":"""",""Q10"":"""",""Q11"":"""",""Q12"":"""",""Q13"":"""",""Q14"":""""}","free_recall","","","","","",""
"","null","audio-keyboard-response","12","2.1.1","301829","pqbzw6y3v6d","stimuli/Cogs 119 List 2.wav","null","","","","","","",""
"","32987","survey-text","13","2.0.0","335837","pqbzw6y3v6d","","{""Q0"":""hill"",""Q1"":""top"",""Q2"":""glacier"",""Q3"":""summit"",""Q4"":""ski"",""Q5"":""steep"",""Q6"":""climber"",""Q7"":""climb"",""Q8"":"""",""Q9"":"""",""Q10"":"""",""Q11"":"""",""Q12"":"""",""Q13"":"""",""Q14"":""""}","free_recall","","","","","",""
"","null","audio-keyboard-response","14","2.1.1","361851","pqbzw6y3v6d","stimuli/Cogs 119 List 5.wav","null","","","","","","",""
"","25777","survey-text","15","2.0.0","388640","pqbzw6y3v6d","","{""Q0"":""slumber"",""Q1"":""snore"",""Q2"":""nap"",""Q3"":""awake"",""Q4"":""drowzy"",""Q5"":""peace"",""Q6"":""dream"",""Q7"":""rest"",""Q8"":""bed"",""Q9"":"""",""Q10"":"""",""Q11"":"""",""Q12"":"""",""Q13"":"""",""Q14"":""""}","free_recall","","","","","",""
"","8464","html-keyboard-response","16","2.0.0","397106","pqbzw6y3v6d","<p>You will now receive another test.<p> 
      <p>Here you will be shown a series of words that you may have seen previously.<p> 
      <p>Your task is to rate your confidence of seeing these words on a 4 point scale<p>
      <p>Definitely new<p> 
      <p>Maybe new<p>
      <p>Maybe seen before<p>
      <p>Definitely seen before<p>
      <p>Press any key to continue<p> 
   "," ","","","","","","",""
"","5633","survey-likert","17","2.0.0","402746","pqbzw6y3v6d","","{""Q0"":0}","recognition","Cherry","weakly related","6","[0]","",""
"","2164","survey-likert","18","2.0.0","404912","pqbzw6y3v6d","","{""Q0"":0}","recognition","Ghost","unrelated","6","[0]","",""
"","5511","survey-likert","19","2.0.0","410425","pqbzw6y3v6d","","{""Q0"":1}","recognition","Door","unrelated","6","[0]","",""
"","2420","survey-likert","20","2.0.0","412848","pqbzw6y3v6d","","{""Q0"":3}","recognition","Sweet","critical","6","[0]","",""
"","4619","survey-likert","21","2.0.0","417470","pqbzw6y3v6d","","{""Q0"":0}","recognition","Sugar","studied","6","[0]","",""
"","2296","survey-likert","22","2.0.0","419768","pqbzw6y3v6d","","{""Q0"":3}","recognition","Sour","studied","6","[0]","",""
"","2211","survey-likert","23","2.0.0","421981","pqbzw6y3v6d","","{""Q0"":1}","recognition","Salty","weakly related","6","[0]","",""
"","2629","survey-likert","24","2.0.0","424612","pqbzw6y3v6d","","{""Q0"":2}","recognition","Floor","weakly related","1","[0]","",""
"","2198","survey-likert","25","2.0.0","426812","pqbzw6y3v6d","","{""Q0"":0}","recognition","Ball","unrelated","1","[0]","",""
"","1621","survey-likert","26","2.0.0","428435","pqbzw6y3v6d","","{""Q0"":0}","recognition","Shoe","unrelated","1","[0]","",""
"","2070","survey-likert","27","2.0.0","430507","pqbzw6y3v6d","","{""Q0"":3}","recognition","Cushion","weakly related","1","[0]","",""
"","5570","survey-likert","28","2.0.0","436079","pqbzw6y3v6d","","{""Q0"":1}","recognition","Chair","critical","1","[0]","",""
"","1872","survey-likert","29","2.0.0","437953","pqbzw6y3v6d","","{""Q0"":3}","recognition","Table","studied","1","[0]","",""
"","1771","survey-likert","30","2.0.0","439726","pqbzw6y3v6d","","{""Q0"":3}","recognition","Couch","studied","1","[0]","",""
"","2726","survey-likert","31","2.0.0","442454","pqbzw6y3v6d","","{""Q0"":0}","recognition","Click: Definitely New","attention_check","none","[0]","",""
"","3327","survey-likert","32","2.0.0","445782","pqbzw6y3v6d","","{""Q0"":1}","recognition","Chalk","weakly related","4","[0]","",""
"","5125","survey-likert","33","2.0.0","450910","pqbzw6y3v6d","","{""Q0"":0}","recognition","Touch","studied","4","[0]","",""
"","4419","survey-likert","34","2.0.0","455331","pqbzw6y3v6d","","{""Q0"":2}","recognition","Spike","weakly related","4","[0]","",""
"","2036","survey-likert","35","2.0.0","457369","pqbzw6y3v6d","","{""Q0"":0}","recognition","Project","unrelated","4","[0]","",""
"","2521","survey-likert","36","2.0.0","459892","pqbzw6y3v6d","","{""Q0"":3}","recognition","Rough","critical","4","[0]","",""
"","1701","survey-likert","37","2.0.0","461595","pqbzw6y3v6d","","{""Q0"":3}","recognition","Smooth","studied","4","[0]","",""
"","2652","survey-likert","38","2.0.0","464248","pqbzw6y3v6d","","{""Q0"":0}","recognition","Key","unrelated","4","[0]","",""
"","2277","survey-likert","39","2.0.0","466527","pqbzw6y3v6d","","{""Q0"":2}","recognition","Stitch","weakly related","3","[0]","",""
"","2006","survey-likert","40","2.0.0","468535","pqbzw6y3v6d","","{""Q0"":0}","recognition","Needle","critical","3","[0]","",""
"","1769","survey-likert","41","2.0.0","470306","pqbzw6y3v6d","","{""Q0"":3}","recognition","Thread","studied","3","[0]","",""
"","2028","survey-likert","42","2.0.0","472335","pqbzw6y3v6d","","{""Q0"":1}","recognition","Stop","unrelated","3","[0]","",""
"","2408","survey-likert","43","2.0.0","474745","pqbzw6y3v6d","","{""Q0"":3}","recognition","Pin","studied","3","[0]","",""
"","3043","survey-likert","44","2.0.0","477790","pqbzw6y3v6d","","{""Q0"":1}","recognition","Splinter","weakly related","3","[0]","",""
"","2225","survey-likert","45","2.0.0","480017","pqbzw6y3v6d","","{""Q0"":0}","recognition","Fast","unrelated","3","[0]","",""
"","2284","survey-likert","46","2.0.0","482303","pqbzw6y3v6d","","{""Q0"":0}","recognition","Draw","unrelated","2","[0]","",""
"","1697","survey-likert","47","2.0.0","484002","pqbzw6y3v6d","","{""Q0"":0}","recognition","Car","unrelated","2","[0]","",""
"","1843","survey-likert","48","2.0.0","485846","pqbzw6y3v6d","","{""Q0"":0}","recognition","Snow","weakly related","2","[0]","",""
"","2086","survey-likert","49","2.0.0","487934","pqbzw6y3v6d","","{""Q0"":2}","recognition","Hike","weakly related","2","[0]","",""
"","2014","survey-likert","50","2.0.0","489950","pqbzw6y3v6d","","{""Q0"":3}","recognition","Hill","studied","2","[0]","",""
"","3812","survey-likert","51","2.0.0","493764","pqbzw6y3v6d","","{""Q0"":1}","recognition","Mountain","critical","2","[0]","",""
"","1999","survey-likert","52","2.0.0","495764","pqbzw6y3v6d","","{""Q0"":3}","recognition","Peak","studied","2","[0]","",""
"","3101","survey-likert","53","2.0.0","498867","pqbzw6y3v6d","","{""Q0"":3}","recognition","Tired","studied","5","[0]","",""
"","1983","survey-likert","54","2.0.0","500853","pqbzw6y3v6d","","{""Q0"":2}","recognition","Calm","weakly related","5","[0]","",""
"","2236","survey-likert","55","2.0.0","503092","pqbzw6y3v6d","","{""Q0"":3}","recognition","Bed","studied","5","[0]","",""
"","6578","survey-likert","56","2.0.0","509671","pqbzw6y3v6d","","{""Q0"":1}","recognition","Sleep","critical","5","[0]","",""
"","1762","survey-likert","57","2.0.0","511435","pqbzw6y3v6d","","{""Q0"":0}","recognition","Fish","unrelated","5","[0]","",""
"","1689","survey-likert","58","2.0.0","513126","pqbzw6y3v6d","","{""Q0"":0}","recognition","Chess","unrelated","5","[0]","",""
"","1593","survey-likert","59","2.0.0","514722","pqbzw6y3v6d","","{""Q0"":0}","recognition","Coma","weakly related","5","[0]","",""
"","42453","survey-likert","60","2.0.0","557177","pqbzw6y3v6d","","{""Q0"":1,""Q1"":1,""Q2"":1,""Q3"":0,""Q4"":1,""Q5"":1}","","","","","[0,1,2,3,4,5]","",""
"","6309","html-keyboard-response","61","2.0.0","563489","pqbzw6y3v6d","
    <h2>Speed Memory Game</h2>
    <p>Press <strong>S</strong> if the word was studied.</p>
    <p>Press <strong>N</strong> if it was NOT studied.</p>
    <p>Respond as quickly as possible. (Please note it may be case sensitive)</p>
    <p>Press any key to begin.</p>
  "," ","","","","","","",""
"","1772","html-keyboard-response","62","2.0.0","565266","pqbzw6y3v6d","<h1>Needle</h1>","n","speed_game","Needle","","","","n","true"
"","null","html-keyboard-response","63","2.0.0","566080","pqbzw6y3v6d","<h2 style='color:green;'>Correct! </h2>","null","","","","","","",""
"","1492","html-keyboard-response","64","2.0.0","567573","pqbzw6y3v6d","<h1>Sour</h1>","s","speed_game","Sour","","","","s","true"
"","null","html-keyboard-response","65","2.0.0","568386","pqbzw6y3v6d","<h2 style='color:green;'>Correct! </h2>","null","","","","","","",""
"","1036","html-keyboard-response","66","2.0.0","569423","pqbzw6y3v6d","<h1>Touch</h1>","n","speed_game","Touch","","","","s","false"
"","null","html-keyboard-response","67","2.0.0","570228","pqbzw6y3v6d","<h2 style='color:red;'>Wrong </h2>","null","","","","","","",""
"","850","html-keyboard-response","68","2.0.0","571079","pqbzw6y3v6d","<h1>Couch</h1>","s","speed_game","Couch","","","","s","true"
"","null","html-keyboard-response","69","2.0.0","571887","pqbzw6y3v6d","<h2 style='color:green;'>Correct! </h2>","null","","","","","","",""
"","937","html-keyboard-response","70","2.0.0","572826","pqbzw6y3v6d","<h1>Mountain</h1>","n","speed_game","Mountain","","","","n","true"
"","null","html-keyboard-response","71","2.0.0","573638","pqbzw6y3v6d","<h2 style='color:green;'>Correct! </h2>","null","","","","","","",""
"","873","html-keyboard-response","72","2.0.0","574513","pqbzw6y3v6d","<h1>Smooth</h1>","s","speed_game","Smooth","","","","s","true"
"","null","html-keyboard-response","73","2.0.0","575323","pqbzw6y3v6d","<h2 style='color:green;'>Correct! </h2>","null","","","","","","",""
"","760","html-keyboard-response","74","2.0.0","576084","pqbzw6y3v6d","<h1>Click N</h1>","n","speed_attention_check","","","","","","true"
"","982","html-keyboard-response","75","2.0.0","577069","pqbzw6y3v6d","<h1>Rough</h1>","s","speed_game","Rough","","","","n","false"
"","null","html-keyboard-response","76","2.0.0","577876","pqbzw6y3v6d","<h2 style='color:red;'>Wrong </h2>","null","","","","","","",""
"","1100","html-keyboard-response","77","2.0.0","578977","pqbzw6y3v6d","<h1>Thread</h1>","s","speed_game","Thread","","","","s","true"
"","null","html-keyboard-response","78","2.0.0","579790","pqbzw6y3v6d","<h2 style='color:green;'>Correct! </h2>","null","","","","","","",""
"","1829","html-keyboard-response","79","2.0.0","581621","pqbzw6y3v6d","<h1>Peak</h1>","s","speed_game","Peak","","","","s","true"
"","null","html-keyboard-response","80","2.0.0","582429","pqbzw6y3v6d","<h2 style='color:green;'>Correct! </h2>","null","","","","","","",""
"","1077","html-keyboard-response","81","2.0.0","583508","pqbzw6y3v6d","<h1>Table</h1>","s","speed_game","Table","","","","s","true"
"","null","html-keyboard-response","82","2.0.0","584316","pqbzw6y3v6d","<h2 style='color:green;'>Correct! </h2>","null","","","","","","",""
"","997","html-keyboard-response","83","2.0.0","585315","pqbzw6y3v6d","<h1>Bed</h1>","s","speed_game","Bed","","","","s","true"
"","null","html-keyboard-response","84","2.0.0","586122","pqbzw6y3v6d","<h2 style='color:green;'>Correct! </h2>","null","","","","","","",""
"","935","html-keyboard-response","85","2.0.0","587060","pqbzw6y3v6d","<h1>Sweet</h1>","n","speed_game","Sweet","","","","n","true"
"","null","html-keyboard-response","86","2.0.0","587870","pqbzw6y3v6d","<h2 style='color:green;'>Correct! </h2>","null","","","","","","",""
"","1126","html-keyboard-response","87","2.0.0","588998","pqbzw6y3v6d","<h1>Sleep</h1>","n","speed_game","Sleep","","","","n","true"
"","null","html-keyboard-response","88","2.0.0","589804","pqbzw6y3v6d","<h2 style='color:green;'>Correct! </h2>","null","","","","","","",""
"","676","html-keyboard-response","89","2.0.0","590482","pqbzw6y3v6d","<h1>Chair</h1>","n","speed_game","Chair","","","","n","true"
"","null","html-keyboard-response","90","2.0.0","591287","pqbzw6y3v6d","<h2 style='color:green;'>Correct! </h2>","null","","","","","","",""
"","911","html-keyboard-response","91","2.0.0","592201","pqbzw6y3v6d","<h1>Tired</h1>","s","speed_game","Tired","","","","s","true"
"","null","html-keyboard-response","92","2.0.0","593016","pqbzw6y3v6d","<h2 style='color:green;'>Correct! </h2>","null","","","","","","",""
"","812","html-keyboard-response","93","2.0.0","593830","pqbzw6y3v6d","<h1>Sugar</h1>","s","speed_game","Sugar","","","","s","true"
"","null","html-keyboard-response","94","2.0.0","594637","pqbzw6y3v6d","<h2 style='color:green;'>Correct! </h2>","null","","","","","","",""
"","918","html-keyboard-response","95","2.0.0","595557","pqbzw6y3v6d","<h1>Pin</h1>","s","speed_game","Pin","","","","s","true"
"","null","html-keyboard-response","96","2.0.0","596372","pqbzw6y3v6d","<h2 style='color:green;'>Correct! </h2>","null","","","","","","",""
"","883","html-keyboard-response","97","2.0.0","597262","pqbzw6y3v6d","<h1>Hill</h1>","s","speed_game","Hill","","","","s","true"
"","null","html-keyboard-response","98","2.0.0","598072","pqbzw6y3v6d","<h2 style='color:green;'>Correct! </h2>","null","","","","","","",""
"","2194","html-keyboard-response","99","2.0.0","600268","pqbzw6y3v6d","
      <h2>Game Results</h2>
      <p>Accuracy: 89%</p>
      <p>Average RT: 1067 ms</p>
      <p>Press any key to continue.</p>
    "," ","","","","","","",""
"","47472","survey-text","100","2.0.0","647759","pqbzw6y3v6d","","{""Q0"":""whether trying to remember specific words in a categoy would create the false memory of recalling a related word"",""Q1"":""good?"",""Q2"":""easy, a straightforward task"",""Q3"":""no"",""Q4"":""no""}","","","","","","",""
