"success","rt","trial_type","trial_index","plugin_version","time_elapsed","random_id","stimulus","response","task","word","condition","list","question_order","correct_answer","correct"
"true","3928","fullscreen","0","2.1.0","4958","pwpfvbp9h8o","","","","","","","","",""
"","2460","html-keyboard-response","1","2.0.0","7421","pwpfvbp9h8o","Welcome to the False Recall experiment. <p>Press any key to begin.</p>"," ","","","","","","",""
"","16064","survey-text","2","2.0.0","23492","pwpfvbp9h8o","","{""participant_id"":""alpaca""}","","","","","","",""
"","11108","html-keyboard-response","3","2.0.0","34602","pwpfvbp9h8o","<p>Listen to the following words. Do your best to memorize as many words as accurately as possible.<p>
      <p>The first trial will begin after this screen<p>
        <p> Press any key to continue<p> 
   "," ","","","","","","",""
"","null","audio-keyboard-response","4","2.1.1","60358","pwpfvbp9h8o","stimuli/Cogs 119 List 3.wav","null","","","","","","",""
"","42041","survey-text","5","2.0.0","103407","pwpfvbp9h8o","","{""Q0"":""thread"",""Q1"":""haystack"",""Q2"":""cloth"",""Q3"":""knitting"",""Q4"":""shark"",""Q5"":""hurting"",""Q6"":""pinpoint"",""Q7"":""hitting"",""Q8"":""layered"",""Q9"":""pin"",""Q10"":""needle"",""Q11"":""injection"",""Q12"":"""",""Q13"":"""",""Q14"":""""}","free_recall","","","","","",""
"","null","audio-keyboard-response","6","2.1.1","129416","pwpfvbp9h8o","stimuli/Cogs 119 List 6.wav","null","","","","","","",""
"","57849","survey-text","7","2.0.0","188273","pwpfvbp9h8o","","{""Q0"":""sour"",""Q1"":""bitter"",""Q2"":""chocolate"",""Q3"":""candy"",""Q4"":"""",""Q5"":"""",""Q6"":"""",""Q7"":"""",""Q8"":"""",""Q9"":"""",""Q10"":""good"",""Q11"":""taste"",""Q12"":""cake"",""Q13"":""tart"",""Q14"":""pie""}","free_recall","","","","","",""
"","null","audio-keyboard-response","8","2.1.1","214239","pwpfvbp9h8o","stimuli/Cogs 119 List 1.wav","null","","","","","","",""
"","25330","survey-text","9","2.0.0","240572","pwpfvbp9h8o","","{""Q0"":""chair"",""Q1"":""sit"",""Q2"":""sitting"",""Q3"":""couch"",""Q4"":""sofa"",""Q5"":""stool"",""Q6"":""swivel"",""Q7"":""bench"",""Q8"":""wood"",""Q9"":""sticks"",""Q10"":""rocking"",""Q11"":"""",""Q12"":"""",""Q13"":"""",""Q14"":""""}","free_recall","","","","","",""
"","null","audio-keyboard-response","10","2.1.1","266196","pwpfvbp9h8o","stimuli/Cogs 119 List 2.wav","null","","","","","","",""
"","35655","survey-text","11","2.0.0","302855","pwpfvbp9h8o","","{""Q0"":""hill"",""Q1"":""valley"",""Q2"":""summit"",""Q3"":""climbing"",""Q4"":""hike"",""Q5"":""walking"",""Q6"":""top"",""Q7"":""peak"",""Q8"":""reach"",""Q9"":""high"",""Q10"":"""",""Q11"":"""",""Q12"":""mountain"",""Q13"":""steep"",""Q14"":""skee""}","free_recall","","","","","",""
"","null","audio-keyboard-response","12","2.1.1","328643","pwpfvbp9h8o","stimuli/Cogs 119 List 5.wav","null","","","","","","",""
"","41007","survey-text","13","2.0.0","370655","pwpfvbp9h8o","","{""Q0"":""bed"",""Q1"":""rest"",""Q2"":""awake"",""Q3"":""dream"",""Q4"":""wake"",""Q5"":""sleepy"",""Q6"":""tired"",""Q7"":""sleep"",""Q8"":""yawn"",""Q9"":"""",""Q10"":"""",""Q11"":"""",""Q12"":"""",""Q13"":""yawn"",""Q14"":""drowsy""}","free_recall","","","","","",""
"","null","audio-keyboard-response","14","2.1.1","397219","pwpfvbp9h8o","stimuli/Cogs 119 List 4.wav","null","","","","","","",""
"","72029","survey-text","15","2.0.0","470254","pwpfvbp9h8o","","{""Q0"":""rugged"",""Q1"":""coarse"",""Q2"":""uneven"",""Q3"":""ground"",""Q4"":""gravel"",""Q5"":""sandpaper"",""Q6"":""writer"",""Q7"":""pavement"",""Q8"":""concrete"",""Q9"":""uneven"",""Q10"":""rough"",""Q11"":""not smooth"",""Q12"":""rugged"",""Q13"":""work"",""Q14"":""road""}","free_recall","","","","","",""
"","9364","html-keyboard-response","16","2.0.0","479619","pwpfvbp9h8o","<p>You will now receive another test.<p> 
      <p>Here you will be shown a series of words that you may have seen previously.<p> 
      <p>Your task is to rate your confidence of seeing these words on a 4 point scale<p>
      <p>Definitely new<p> 
      <p>Maybe new<p>
      <p>Maybe seen before<p>
      <p>Definitely seen before<p>
      <p>Press any key to continue<p> 
   "," ","","","","","","",""
"","6765","survey-likert","17","2.0.0","486388","pwpfvbp9h8o","","{""Q0"":2}","recognition","Fast","unrelated","3","[0]","",""
"","3263","survey-likert","18","2.0.0","489654","pwpfvbp9h8o","","{""Q0"":2}","recognition","Needle","critical","3","[0]","",""
"","2698","survey-likert","19","2.0.0","492354","pwpfvbp9h8o","","{""Q0"":1}","recognition","Stitch","weakly related","3","[0]","",""
"","1964","survey-likert","20","2.0.0","494321","pwpfvbp9h8o","","{""Q0"":0}","recognition","Splinter","weakly related","3","[0]","",""
"","2181","survey-likert","21","2.0.0","496505","pwpfvbp9h8o","","{""Q0"":3}","recognition","Thread","studied","3","[0]","",""
"","2664","survey-likert","22","2.0.0","499171","pwpfvbp9h8o","","{""Q0"":1}","recognition","Stop","unrelated","3","[0]","",""
"","1964","survey-likert","23","2.0.0","501138","pwpfvbp9h8o","","{""Q0"":3}","recognition","Pin","studied","3","[0]","",""
"","1747","survey-likert","24","2.0.0","502888","pwpfvbp9h8o","","{""Q0"":1}","recognition","Cherry","weakly related","6","[0]","",""
"","1481","survey-likert","25","2.0.0","504371","pwpfvbp9h8o","","{""Q0"":1}","recognition","Salty","weakly related","6","[0]","",""
"","2398","survey-likert","26","2.0.0","506771","pwpfvbp9h8o","","{""Q0"":2}","recognition","Door","unrelated","6","[0]","",""
"","2047","survey-likert","27","2.0.0","508821","pwpfvbp9h8o","","{""Q0"":1}","recognition","Ghost","unrelated","6","[0]","",""
"","2431","survey-likert","28","2.0.0","511254","pwpfvbp9h8o","","{""Q0"":3}","recognition","Sweet","critical","6","[0]","",""
"","2531","survey-likert","29","2.0.0","513787","pwpfvbp9h8o","","{""Q0"":3}","recognition","Sour","studied","6","[0]","",""
"","3115","survey-likert","30","2.0.0","516905","pwpfvbp9h8o","","{""Q0"":3}","recognition","Sugar","studied","6","[0]","",""
"","1946","survey-likert","31","2.0.0","518853","pwpfvbp9h8o","","{""Q0"":1}","recognition","Ball","unrelated","1","[0]","",""
"","3216","survey-likert","32","2.0.0","522071","pwpfvbp9h8o","","{""Q0"":1}","recognition","Floor","weakly related","1","[0]","",""
"","2281","survey-likert","33","2.0.0","524354","pwpfvbp9h8o","","{""Q0"":3}","recognition","Table","studied","1","[0]","",""
"","1814","survey-likert","34","2.0.0","526171","pwpfvbp9h8o","","{""Q0"":3}","recognition","Cushion","weakly related","1","[0]","",""
"","1530","survey-likert","35","2.0.0","527704","pwpfvbp9h8o","","{""Q0"":3}","recognition","Chair","critical","1","[0]","",""
"","1315","survey-likert","36","2.0.0","529021","pwpfvbp9h8o","","{""Q0"":3}","recognition","Couch","studied","1","[0]","",""
"","2798","survey-likert","37","2.0.0","531821","pwpfvbp9h8o","","{""Q0"":1}","recognition","Shoe","unrelated","1","[0]","",""
"","2014","survey-likert","38","2.0.0","533838","pwpfvbp9h8o","","{""Q0"":1}","recognition","Snow","weakly related","2","[0]","",""
"","1747","survey-likert","39","2.0.0","535588","pwpfvbp9h8o","","{""Q0"":1}","recognition","Draw","unrelated","2","[0]","",""
"","2413","survey-likert","40","2.0.0","538003","pwpfvbp9h8o","","{""Q0"":3}","recognition","Hike","weakly related","2","[0]","",""
"","1665","survey-likert","41","2.0.0","539671","pwpfvbp9h8o","","{""Q0"":3}","recognition","Peak","studied","2","[0]","",""
"","1381","survey-likert","42","2.0.0","541055","pwpfvbp9h8o","","{""Q0"":3}","recognition","Mountain","critical","2","[0]","",""
"","1414","survey-likert","43","2.0.0","542471","pwpfvbp9h8o","","{""Q0"":3}","recognition","Hill","studied","2","[0]","",""
"","2448","survey-likert","44","2.0.0","544921","pwpfvbp9h8o","","{""Q0"":1}","recognition","Car","unrelated","2","[0]","",""
"","4197","survey-likert","45","2.0.0","549121","pwpfvbp9h8o","","{""Q0"":0}","recognition","Click: Definitely New","attention_check","none","[0]","",""
"","2381","survey-likert","46","2.0.0","551505","pwpfvbp9h8o","","{""Q0"":3}","recognition","Sleep","critical","5","[0]","",""
"","4213","survey-likert","47","2.0.0","555721","pwpfvbp9h8o","","{""Q0"":0}","recognition","Coma","weakly related","5","[0]","",""
"","1748","survey-likert","48","2.0.0","557470","pwpfvbp9h8o","","{""Q0"":1}","recognition","Calm","weakly related","5","[0]","",""
"","2148","survey-likert","49","2.0.0","559621","pwpfvbp9h8o","","{""Q0"":1}","recognition","Fish","unrelated","5","[0]","",""
"","2847","survey-likert","50","2.0.0","562471","pwpfvbp9h8o","","{""Q0"":0}","recognition","Chess","unrelated","5","[0]","",""
"","2765","survey-likert","51","2.0.0","565238","pwpfvbp9h8o","","{""Q0"":3}","recognition","Tired","studied","5","[0]","",""
"","2048","survey-likert","52","2.0.0","567288","pwpfvbp9h8o","","{""Q0"":3}","recognition","Bed","studied","5","[0]","",""
"","4180","survey-likert","53","2.0.0","571470","pwpfvbp9h8o","","{""Q0"":1}","recognition","Project","unrelated","4","[0]","",""
"","3780","survey-likert","54","2.0.0","575253","pwpfvbp9h8o","","{""Q0"":1}","recognition","Key","unrelated","4","[0]","",""
"","2599","survey-likert","55","2.0.0","577853","pwpfvbp9h8o","","{""Q0"":2}","recognition","Smooth","studied","4","[0]","",""
"","1933","survey-likert","56","2.0.0","579787","pwpfvbp9h8o","","{""Q0"":1}","recognition","Spike","weakly related","4","[0]","",""
"","2097","survey-likert","57","2.0.0","581887","pwpfvbp9h8o","","{""Q0"":1}","recognition","Chalk","weakly related","4","[0]","",""
"","3799","survey-likert","58","2.0.0","585687","pwpfvbp9h8o","","{""Q0"":1}","recognition","Touch","studied","4","[0]","",""
"","2531","survey-likert","59","2.0.0","588220","pwpfvbp9h8o","","{""Q0"":3}","recognition","Rough","critical","4","[0]","",""
"","10500","survey-likert","60","2.0.0","598721","pwpfvbp9h8o","","{""Q0"":0,""Q1"":0,""Q2"":0,""Q3"":0,""Q4"":0,""Q5"":0}","","","","","[0,1,2,3,4,5]","",""
"","8558","html-keyboard-response","61","2.0.0","607281","pwpfvbp9h8o","
    <h2>Speed Memory Game</h2>
    <p>Press <strong>S</strong> if the word was studied.</p>
    <p>Press <strong>N</strong> if it was NOT studied.</p>
    <p>Respond as quickly as possible. (Please note it may be case sensitive)</p>
    <p>Press any key to begin.</p>
  "," ","","","","","","",""
"","1603","html-keyboard-response","62","2.0.0","608885","pwpfvbp9h8o","<h1>Sleep</h1>","s","speed_game","Sleep","","","","n","false"
"","null","html-keyboard-response","63","2.0.0","609688","pwpfvbp9h8o","<h2 style='color:red;'>Wrong </h2>","null","","","","","","",""
"","859","html-keyboard-response","64","2.0.0","610549","pwpfvbp9h8o","<h1>Touch</h1>","s","speed_game","Touch","","","","s","true"
"","null","html-keyboard-response","65","2.0.0","611352","pwpfvbp9h8o","<h2 style='color:green;'>Correct! </h2>","null","","","","","","",""
"","660","html-keyboard-response","66","2.0.0","612014","pwpfvbp9h8o","<h1>Peak</h1>","s","speed_game","Peak","","","","s","true"
"","null","html-keyboard-response","67","2.0.0","612816","pwpfvbp9h8o","<h2 style='color:green;'>Correct! </h2>","null","","","","","","",""
"","1131","html-keyboard-response","68","2.0.0","613949","pwpfvbp9h8o","<h1>Rough</h1>","s","speed_game","Rough","","","","n","false"
"","null","html-keyboard-response","69","2.0.0","614751","pwpfvbp9h8o","<h2 style='color:red;'>Wrong </h2>","null","","","","","","",""
"","748","html-keyboard-response","70","2.0.0","615501","pwpfvbp9h8o","<h1>Sour</h1>","s","speed_game","Sour","","","","s","true"
"","null","html-keyboard-response","71","2.0.0","616303","pwpfvbp9h8o","<h2 style='color:green;'>Correct! </h2>","null","","","","","","",""
"","751","html-keyboard-response","72","2.0.0","617056","pwpfvbp9h8o","<h1>Couch</h1>","s","speed_game","Couch","","","","s","true"
"","null","html-keyboard-response","73","2.0.0","617859","pwpfvbp9h8o","<h2 style='color:green;'>Correct! </h2>","null","","","","","","",""
"","759","html-keyboard-response","74","2.0.0","618620","pwpfvbp9h8o","<h1>Mountain</h1>","s","speed_game","Mountain","","","","n","false"
"","null","html-keyboard-response","75","2.0.0","619422","pwpfvbp9h8o","<h2 style='color:red;'>Wrong </h2>","null","","","","","","",""
"","785","html-keyboard-response","76","2.0.0","620208","pwpfvbp9h8o","<h1>Chair</h1>","s","speed_game","Chair","","","","n","false"
"","null","html-keyboard-response","77","2.0.0","621011","pwpfvbp9h8o","<h2 style='color:red;'>Wrong </h2>","null","","","","","","",""
"","3874","html-keyboard-response","78","2.0.0","624887","pwpfvbp9h8o","<h1>Smooth</h1>","s","speed_game","Smooth","","","","s","true"
"","null","html-keyboard-response","79","2.0.0","625689","pwpfvbp9h8o","<h2 style='color:green;'>Correct! </h2>","null","","","","","","",""
"","601","html-keyboard-response","80","2.0.0","626292","pwpfvbp9h8o","<h1>Bed</h1>","s","speed_game","Bed","","","","s","true"
"","null","html-keyboard-response","81","2.0.0","627094","pwpfvbp9h8o","<h2 style='color:green;'>Correct! </h2>","null","","","","","","",""
"","843","html-keyboard-response","82","2.0.0","627938","pwpfvbp9h8o","<h1>Table</h1>","s","speed_game","Table","","","","s","true"
"","null","html-keyboard-response","83","2.0.0","628741","pwpfvbp9h8o","<h2 style='color:green;'>Correct! </h2>","null","","","","","","",""
"","950","html-keyboard-response","84","2.0.0","629692","pwpfvbp9h8o","<h1>Click N</h1>","n","speed_attention_check","","","","","","true"
"","2922","html-keyboard-response","85","2.0.0","632616","pwpfvbp9h8o","<h1>Sweet</h1>","n","speed_game","Sweet","","","","n","true"
"","null","html-keyboard-response","86","2.0.0","633418","pwpfvbp9h8o","<h2 style='color:green;'>Correct! </h2>","null","","","","","","",""
"","792","html-keyboard-response","87","2.0.0","634212","pwpfvbp9h8o","<h1>Thread</h1>","s","speed_game","Thread","","","","s","true"
"","null","html-keyboard-response","88","2.0.0","635013","pwpfvbp9h8o","<h2 style='color:green;'>Correct! </h2>","null","","","","","","",""
"","815","html-keyboard-response","89","2.0.0","635829","pwpfvbp9h8o","<h1>Needle</h1>","s","speed_game","Needle","","","","n","false"
"","null","html-keyboard-response","90","2.0.0","636631","pwpfvbp9h8o","<h2 style='color:red;'>Wrong </h2>","null","","","","","","",""
"","1343","html-keyboard-response","91","2.0.0","637975","pwpfvbp9h8o","<h1>Sugar</h1>","s","speed_game","Sugar","","","","s","true"
"","null","html-keyboard-response","92","2.0.0","638777","pwpfvbp9h8o","<h2 style='color:green;'>Correct! </h2>","null","","","","","","",""
"","802","html-keyboard-response","93","2.0.0","639580","pwpfvbp9h8o","<h1>Tired</h1>","s","speed_game","Tired","","","","s","true"
"","null","html-keyboard-response","94","2.0.0","640382","pwpfvbp9h8o","<h2 style='color:green;'>Correct! </h2>","null","","","","","","",""
"","801","html-keyboard-response","95","2.0.0","641185","pwpfvbp9h8o","<h1>Pin</h1>","s","speed_game","Pin","","","","s","true"
"","null","html-keyboard-response","96","2.0.0","641988","pwpfvbp9h8o","<h2 style='color:green;'>Correct! </h2>","null","","","","","","",""
"","702","html-keyboard-response","97","2.0.0","642692","pwpfvbp9h8o","<h1>Hill</h1>","s","speed_game","Hill","","","","s","true"
"","null","html-keyboard-response","98","2.0.0","643494","pwpfvbp9h8o","<h2 style='color:green;'>Correct! </h2>","null","","","","","","",""
"","3385","html-keyboard-response","99","2.0.0","646882","pwpfvbp9h8o","
      <h2>Game Results</h2>
      <p>Accuracy: 72%</p>
      <p>Average RT: 1155 ms</p>
      <p>Press any key to continue.</p>
    "," ","","","","","","",""
"","87358","survey-text","100","2.0.0","734253","pwpfvbp9h8o","","{""Q0"":""auditory memory capacity"",""Q1"":""was going a little to fast for me to image the words that were being said in order for me to remember them "",""Q2"":""moderately challenging, I liked the experiment, a little too quick; I feel I could've memorized more if I had more time in between audio words"",""Q3"":""no"",""Q4"":""no""}","","","","","","",""
